%time,field.header.seq,field.header.stamp,field.header.frame_id,field.orientation.x,field.orientation.y,field.orientation.z,field.orientation.w,field.orientation_covariance0,field.orientation_covariance1,field.orientation_covariance2,field.orientation_covariance3,field.orientation_covariance4,field.orientation_covariance5,field.orientation_covariance6,field.orientation_covariance7,field.orientation_covariance8,field.angular_velocity.x,field.angular_velocity.y,field.angular_velocity.z,field.angular_velocity_covariance0,field.angular_velocity_covariance1,field.angular_velocity_covariance2,field.angular_velocity_covariance3,field.angular_velocity_covariance4,field.angular_velocity_covariance5,field.angular_velocity_covariance6,field.angular_velocity_covariance7,field.angular_velocity_covariance8,field.linear_acceleration.x,field.linear_acceleration.y,field.linear_acceleration.z,field.linear_acceleration_covariance0,field.linear_acceleration_covariance1,field.linear_acceleration_covariance2,field.linear_acceleration_covariance3,field.linear_acceleration_covariance4,field.linear_acceleration_covariance5,field.linear_acceleration_covariance6,field.linear_acceleration_covariance7,field.linear_acceleration_covariance8
1745400043838035975,5621,1745400043835865231,gyro_link,0.00899876933545,-0.0201140269637,-0.29273378849,-0.955940067768,0.0,0.0,0.0,0.0,0.0,0.0,0.0,0.0,0.0,-0.00174838828389,-0.000519338995218,0.000120454496937,0.0,0.0,0.0,0.0,0.0,0.0,0.0,0.0,0.0,-0.419021070004,-0.0730286240578,9.87092781067,0.0,0.0,0.0,0.0,0.0,0.0,0.0,0.0,0.0
1745400043839520759,5622,1745400043838848089,gyro_link,0.00900289323181,-0.0201193019748,-0.292734652758,-0.955939650536,0.0,0.0,0.0,0.0,0.0,0.0,0.0,0.0,0.0,-0.000134267276735,0.000535794941243,-0.00146782759111,0.0,0.0,0.0,0.0,0.0,0.0,0.0,0.0,0.0,-0.428402841091,-0.0635771304369,9.85283565521,0.0,0.0,0.0,0.0,0.0,0.0,0.0,0.0,0.0
1745400043851401760,5623,1745400043851070864,gyro_link,0.00900074560195,-0.0201249569654,-0.292738765478,-0.955938339233,0.0,0.0,0.0,0.0,0.0,0.0,0.0,0.0,0.0,-0.00172659964301,0.00159766816068,-0.00202339957468,0.0,0.0,0.0,0.0,0.0,0.0,0.0,0.0,0.0,-0.434368848801,-0.0683671534061,9.85160923004,0.0,0.0,0.0,0.0,0.0,0.0,0.0,0.0,0.0
1745400043859566288,5624,1745400043858966937,gyro_link,0.00899590272456,-0.0201282203197,-0.292734205723,-0.95593971014,0.0,0.0,0.0,0.0,0.0,0.0,0.0,0.0,0.0,0.00145275716204,0.00107515568379,-0.000389770488255,0.0,0.0,0.0,0.0,0.0,0.0,0.0,0.0,0.0,-0.4335488379,-0.0501983948052,9.8885717392,0.0,0.0,0.0,0.0,0.0,0.0,0.0,0.0,0.0
1745400043865386665,5625,1745400043865276447,gyro_link,0.00900492817163,-0.0201292932034,-0.292731404305,-0.955940485001,0.0,0.0,0.0,0.0,0.0,0.0,0.0,0.0,0.0,0.000930977344979,0.0010684162844,-0.00146037177183,0.0,0.0,0.0,0.0,0.0,0.0,0.0,0.0,0.0,-0.427486032248,-0.0526425875723,9.88027858734,0.0,0.0,0.0,0.0,0.0,0.0,0.0,0.0,0.0
1745400043875294308,5626,1745400043875199265,gyro_link,0.00900393072516,-0.020124733448,-0.2927326262,-0.955940186977,0.0,0.0,0.0,0.0,0.0,0.0,0.0,0.0,0.0,0.000382099358831,0.000545904156752,0.000135367212351,0.0,0.0,0.0,0.0,0.0,0.0,0.0,0.0,0.0,-0.428500115871,-0.0647122189403,9.862408638,0.0,0.0,0.0,0.0,0.0,0.0,0.0,0.0,0.0
1745400043885365724,5627,1745400043885175574,gyro_link,0.00900383945554,-0.0201219320297,-0.292729556561,-0.955941140652,0.0,0.0,0.0,0.0,0.0,0.0,0.0,0.0,0.0,-0.000134267276735,0.000535794941243,-0.00146782759111,0.0,0.0,0.0,0.0,0.0,0.0,0.0,0.0,0.0,-0.429780483246,-0.0598768182099,9.87073516846,0.0,0.0,0.0,0.0,0.0,0.0,0.0,0.0,0.0
1745400043898606386,5628,1745400043898193410,gyro_link,0.00900220870972,-0.0201214458793,-0.292729526758,-0.955941200256,0.0,0.0,0.0,0.0,0.0,0.0,0.0,0.0,0.0,-0.00226465030573,0.0010684162844,-0.00149284908548,0.0,0.0,0.0,0.0,0.0,0.0,0.0,0.0,0.0,-0.421544313431,-0.0490330383182,9.88390159607,0.0,0.0,0.0,0.0,0.0,0.0,0.0,0.0,0.0
1745400043905589200,5629,1745400043905357299,gyro_link,0.0090030580759,-0.0201188400388,-0.292728990316,-0.95594137907,0.0,0.0,0.0,0.0,0.0,0.0,0.0,0.0,0.0,-0.00173204671592,0.0010684162844,-0.00148743612226,0.0,0.0,0.0,0.0,0.0,0.0,0.0,0.0,0.0,-0.435697853565,-0.0646970942616,9.86472606659,0.0,0.0,0.0,0.0,0.0,0.0,0.0,0.0,0.0
1745400043915310226,5630,1745400043915210065,gyro_link,0.00900442712009,-0.0201211255044,-0.2927287817,-0.95594137907,0.0,0.0,0.0,0.0,0.0,0.0,0.0,0.0,0.0,0.000398337957449,0.000535794941243,-0.00146241462789,0.0,0.0,0.0,0.0,0.0,0.0,0.0,0.0,0.0,-0.418897926807,-0.0479962714016,9.85881233215,0.0,0.0,0.0,0.0,0.0,0.0,0.0,0.0,0.0
1745400043925497723,5631,1745400043925230216,gyro_link,0.0090024471283,-0.0201184321195,-0.292727649212,-0.955941855907,0.0,0.0,0.0,0.0,0.0,0.0,0.0,0.0,0.0,-0.00281349383295,0.0010785254417,9.95198643068e-05,0.0,0.0,0.0,0.0,0.0,0.0,0.0,0.0,0.0,-0.42621704936,-0.0455142706633,9.87307262421,0.0,0.0,0.0,0.0,0.0,0.0,0.0,0.0,0.0
1745400043935794191,5632,1745400043935393899,gyro_link,0.00899624917656,-0.0201237183064,-0.292732000351,-0.955940485001,0.0,0.0,0.0,0.0,0.0,0.0,0.0,0.0,0.0,-0.000139645897434,0.0010717860423,-0.00093860301422,0.0,0.0,0.0,0.0,0.0,0.0,0.0,0.0,0.0,-0.427364736795,-0.0563050992787,9.86834526062,0.0,0.0,0.0,0.0,0.0,0.0,0.0,0.0,0.0
1745400043945662220,5633,1745400043945312126,gyro_link,0.00899532530457,-0.0201223287731,-0.292731851339,-0.95594060421,0.0,0.0,0.0,0.0,0.0,0.0,0.0,0.0,0.0,-0.00119402864948,0.00106504652649,-0.00201461696997,0.0,0.0,0.0,0.0,0.0,0.0,0.0,0.0,0.0,-0.436722487211,-0.0516512021422,9.8478937149,0.0,0.0,0.0,0.0,0.0,0.0,0.0,0.0,0.0
1745400043955554616,5634,1745400043955312319,gyro_link,0.0089960694313,-0.0201250668615,-0.292730718851,-0.955940783024,0.0,0.0,0.0,0.0,0.0,0.0,0.0,0.0,0.0,-0.0012156117009,0.0021437688265,0.000109019616502,0.0,0.0,0.0,0.0,0.0,0.0,0.0,0.0,0.0,-0.432098865509,-0.0623134337366,9.86355209351,0.0,0.0,0.0,0.0,0.0,0.0,0.0,0.0,0.0
1745400043965520910,5635,1745400043965244767,gyro_link,0.00899128522724,-0.0201292764395,-0.292735129595,-0.955939412117,0.0,0.0,0.0,0.0,0.0,0.0,0.0,0.0,0.0,-0.00121574883815,1.32825844048e-05,0.000122497891425,0.0,0.0,0.0,0.0,0.0,0.0,0.0,0.0,0.0,-0.431012541056,-0.0610497407615,9.87431716919,0.0,0.0,0.0,0.0,0.0,0.0,0.0,0.0,0.0
1745400043975578356,5636,1745400043975273677,gyro_link,0.00899220444262,-0.0201291199774,-0.292737752199,-0.955938637257,0.0,0.0,0.0,0.0,0.0,0.0,0.0,0.0,0.0,-0.00226458185352,0.00213365978561,-0.00149958813563,0.0,0.0,0.0,0.0,0.0,0.0,0.0,0.0,0.0,-0.44283413887,-0.0527636222541,9.86099147797,0.0,0.0,0.0,0.0,0.0,0.0,0.0,0.0,0.0
1745400043985595595,5637,1745400043985358945,gyro_link,0.00899237301201,-0.0201258976012,-0.292736679316,-0.955938994884,0.0,0.0,0.0,0.0,0.0,0.0,0.0,0.0,0.0,0.000920151651371,0.00107515568379,-0.000395183451474,0.0,0.0,0.0,0.0,0.0,0.0,0.0,0.0,0.0,-0.426108896732,-0.0635166093707,9.86242485046,0.0,0.0,0.0,0.0,0.0,0.0,0.0,0.0,0.0
1745400043995417517,5638,1745400043995197852,gyro_link,0.00898906961083,-0.0201235637069,-0.292732834816,-0.955940246582,0.0,0.0,0.0,0.0,0.0,0.0,0.0,0.0,0.0,-0.000145127254655,9.91284105112e-06,-0.000399270269554,0.0,0.0,0.0,0.0,0.0,0.0,0.0,0.0,0.0,-0.432050019503,-0.0587568469346,9.85874652863,0.0,0.0,0.0,0.0,0.0,0.0,0.0,0.0,0.0
1745400044005528811,5639,1745400044005281768,gyro_link,0.00898798275739,-0.0201247036457,-0.292733758688,-0.955940008163,0.0,0.0,0.0,0.0,0.0,0.0,0.0,0.0,0.0,0.000387616863009,0.00214039906859,-0.000407335552154,0.0,0.0,0.0,0.0,0.0,0.0,0.0,0.0,0.0,-0.425010025501,-0.0562823861837,9.87195682526,0.0,0.0,0.0,0.0,0.0,0.0,0.0,0.0,0.0
1745400044015333321,5640,1745400044015162093,gyro_link,0.0089856442064,-0.0201236307621,-0.292737752199,-0.955938756466,0.0,0.0,0.0,0.0,0.0,0.0,0.0,0.0,0.0,-0.000661526224576,-0.000532817968633,-0.00199909531511,0.0,0.0,0.0,0.0,0.0,0.0,0.0,0.0,0.0,-0.441736251116,-0.0598768182099,9.87061405182,0.0,0.0,0.0,0.0,0.0,0.0,0.0,0.0,0.0
1745400044025371865,5641,1745400044025197560,gyro_link,0.00898358505219,-0.020122917369,-0.292735338211,-0.955939531326,0.0,0.0,0.0,0.0,0.0,0.0,0.0,0.0,0.0,-0.00174831959885,0.000545904156752,0.0001137153522,0.0,0.0,0.0,0.0,0.0,0.0,0.0,0.0,0.0,-0.430950939655,-0.047935757786,9.86825561523,0.0,0.0,0.0,0.0,0.0,0.0,0.0,0.0,0.0
1745400044040467524,5642,1745400044040179684,gyro_link,0.00898285675794,-0.0201194565743,-0.292735725641,-0.955939590931,0.0,0.0,0.0,0.0,0.0,0.0,0.0,0.0,0.0,-0.000672215071972,0.0016044076765,-0.000947385560721,0.0,0.0,0.0,0.0,0.0,0.0,0.0,0.0,0.0,-0.420409709215,-0.0525820814073,9.88991546631,0.0,0.0,0.0,0.0,0.0,0.0,0.0,0.0,0.0
1745400044050073047,5643,1745400044049231931,gyro_link,0.00898448750377,-0.0201206337661,-0.292731791735,-0.955940663815,0.0,0.0,0.0,0.0,0.0,0.0,0.0,0.0,0.0,-0.00119957863353,-0.00106207001954,-0.00146854482591,0.0,0.0,0.0,0.0,0.0,0.0,0.0,0.0,0.0,-0.427291512489,-0.0503723807633,9.86113357544,0.0,0.0,0.0,0.0,0.0,0.0,0.0,0.0,0.0
1745400044055440091,5644,1745400044055250272,gyro_link,0.00898674223572,-0.0201244354248,-0.292730569839,-0.955940961838,0.0,0.0,0.0,0.0,0.0,0.0,0.0,0.0,0.0,-0.000134233021527,0.0010684162844,-0.00147119769827,0.0,0.0,0.0,0.0,0.0,0.0,0.0,0.0,0.0,-0.433330446482,-0.0563126504421,9.86708831787,0.0,0.0,0.0,0.0,0.0,0.0,0.0,0.0,0.0
1745400044100380988,5645,1745400044090948351,gyro_link,0.00898577738553,-0.02012341097,-0.292732924223,-0.955940306187,0.0,0.0,0.0,0.0,0.0,0.0,0.0,0.0,0.0,-0.00068304076558,0.00161114707589,0.000117802163004,0.0,0.0,0.0,0.0,0.0,0.0,0.0,0.0,0.0,-0.436940908432,-0.0467325821519,9.86938285828,0.0,0.0,0.0,0.0,0.0,0.0,0.0,0.0,0.0
1745400044100414388,5646,1745400044092629609,gyro_link,0.00898852106184,-0.0201217327267,-0.29273429513,-0.95593982935,0.0,0.0,0.0,0.0,0.0,0.0,0.0,0.0,0.0,0.000371307891328,0.00108526507393,0.00119718629867,0.0,0.0,0.0,0.0,0.0,0.0,0.0,0.0,0.0,-0.428596258163,-0.0479130595922,9.87186717987,0.0,0.0,0.0,0.0,0.0,0.0,0.0,0.0,0.0
1745400044100435503,5647,1745400044092675744,gyro_link,0.00899006985128,-0.0201216079295,-0.29273417592,-0.95593982935,0.0,0.0,0.0,0.0,0.0,0.0,0.0,0.0,0.0,-0.000155952962814,1.66523277585e-05,0.000665917934384,0.0,0.0,0.0,0.0,0.0,0.0,0.0,0.0,0.0,-0.421386241913,-0.0467401482165,9.86834526062,0.0,0.0,0.0,0.0,0.0,0.0,0.0,0.0,0.0
1745400044101095342,5648,1745400044098653068,gyro_link,0.00899076648057,-0.0201223026961,-0.292733877897,-0.955940008163,0.0,0.0,0.0,0.0,0.0,0.0,0.0,0.0,0.0,-0.000661389320157,0.00159766816068,-0.00201257364824,0.0,0.0,0.0,0.0,0.0,0.0,0.0,0.0,0.0,-0.429731279612,-0.0503421165049,9.86589241028,0.0,0.0,0.0,0.0,0.0,0.0,0.0,0.0,0.0
1745400044105462507,5649,1745400044105240806,gyro_link,0.00899387896061,-0.0201239511371,-0.292738616467,-0.955938398838,0.0,0.0,0.0,0.0,0.0,0.0,0.0,0.0,0.0,-0.000134301531943,3.1733582091e-06,-0.00146445806604,0.0,0.0,0.0,0.0,0.0,0.0,0.0,0.0,0.0,-0.433560431004,-0.0418215170503,9.88971328735,0.0,0.0,0.0,0.0,0.0,0.0,0.0,0.0,0.0
1745400044117827869,5650,1745400044117551480,gyro_link,0.0089962547645,-0.0201249253005,-0.292738050222,-0.955938518047,0.0,0.0,0.0,0.0,0.0,0.0,0.0,0.0,0.0,0.00146899383981,0.00106504652649,-0.00198755227029,0.0,0.0,0.0,0.0,0.0,0.0,0.0,0.0,0.0,-0.422595024109,-0.0634712353349,9.8696346283,0.0,0.0,0.0,0.0,0.0,0.0,0.0,0.0,0.0
1745400044125425911,5651,1745400044125179445,gyro_link,0.00899485498667,-0.0201284456998,-0.292741835117,-0.955937445164,0.0,0.0,0.0,0.0,0.0,0.0,0.0,0.0,0.0,0.000387580774259,0.0016077774344,-0.000403965997975,0.0,0.0,0.0,0.0,0.0,0.0,0.0,0.0,0.0,-0.427353382111,-0.0682688206434,9.8672246933,0.0,0.0,0.0,0.0,0.0,0.0,0.0,0.0,0.0
1745400044138324642,5652,1745400044137835841,gyro_link,0.00899081677198,-0.0201261620969,-0.292741060257,-0.955937743187,0.0,0.0,0.0,0.0,0.0,0.0,0.0,0.0,0.0,-0.00174294109456,9.91284105112e-06,-0.000415509159211,0.0,0.0,0.0,0.0,0.0,0.0,0.0,0.0,0.0,-0.434902608395,-0.0536868982017,9.90412330627,0.0,0.0,0.0,0.0,0.0,0.0,0.0,0.0,0.0
1745400044145324747,5653,1745400044145217777,gyro_link,0.00899127498269,-0.0201212503016,-0.292744219303,-0.955936908722,0.0,0.0,0.0,0.0,0.0,0.0,0.0,0.0,0.0,-0.000666870677378,0.000535794941243,-0.00147324055433,0.0,0.0,0.0,0.0,0.0,0.0,0.0,0.0,0.0,-0.41423740983,-0.0527031086385,9.87084770203,0.0,0.0,0.0,0.0,0.0,0.0,0.0,0.0,0.0
1745400044155302780,5654,1745400044155130543,gyro_link,0.0089868362993,-0.0201182309538,-0.292746990919,-0.955936074257,0.0,0.0,0.0,0.0,0.0,0.0,0.0,0.0,0.0,-0.00066688208608,0.000358254648745,-0.00147211737931,0.0,0.0,0.0,0.0,0.0,0.0,0.0,0.0,0.0,-0.428194224834,-0.0566834583879,9.87152862549,0.0,0.0,0.0,0.0,0.0,0.0,0.0,0.0,0.0
1745400044165661757,5655,1745400044165337840,gyro_link,0.00898739136755,-0.0201163366437,-0.292744636536,-0.955936908722,0.0,0.0,0.0,0.0,0.0,0.0,0.0,0.0,0.0,-0.00280814943835,9.91284105112e-06,-0.000426335085649,0.0,0.0,0.0,0.0,0.0,0.0,0.0,0.0,0.0,-0.423875004053,-0.0526577048004,9.87792301178,0.0,0.0,0.0,0.0,0.0,0.0,0.0,0.0,0.0
1745400044175747512,5656,1745400044175340160,gyro_link,0.00899477116764,-0.0201117433608,-0.292744904757,-0.955936729908,0.0,0.0,0.0,0.0,0.0,0.0,0.0,0.0,0.0,-0.00226461631246,0.00160103791859,-0.00149621861055,0.0,0.0,0.0,0.0,0.0,0.0,0.0,0.0,0.0,-0.432243913412,-0.0502664782107,9.87782287598,0.0,0.0,0.0,0.0,0.0,0.0,0.0,0.0,0.0
1745400044185674055,5657,1745400044185362724,gyro_link,0.00899998191744,-0.02011186257,-0.292748391628,-0.955935657024,0.0,0.0,0.0,0.0,0.0,0.0,0.0,0.0,0.0,-0.00173745967913,0.0010717860423,-0.000954841903877,0.0,0.0,0.0,0.0,0.0,0.0,0.0,0.0,0.0,-0.441590368748,-0.0587719716132,9.85625839233,0.0,0.0,0.0,0.0,0.0,0.0,0.0,0.0,0.0
1745400044195701640,5658,1745400044195350924,gyro_link,0.00899329874665,-0.0201174356043,-0.292751789093,-0.955934584141,0.0,0.0,0.0,0.0,0.0,0.0,0.0,0.0,0.0,0.00145813566633,0.000539164640941,-0.00091899454128,0.0,0.0,0.0,0.0,0.0,0.0,0.0,0.0,0.0,-0.41656845808,-0.062305867672,9.86490535736,0.0,0.0,0.0,0.0,0.0,0.0,0.0,0.0,0.0
1745400044210614427,5659,1745400044210042822,gyro_link,0.00899297278374,-0.0201195217669,-0.292753428221,-0.955934047699,0.0,0.0,0.0,0.0,0.0,0.0,0.0,0.0,0.0,-0.000139611671329,0.0016044076765,-0.000941972597502,0.0,0.0,0.0,0.0,0.0,0.0,0.0,0.0,0.0,-0.419312030077,-0.0620865039527,9.89955234528,0.0,0.0,0.0,0.0,0.0,0.0,0.0,0.0,0.0
1745400044215617138,5660,1745400044215442695,gyro_link,0.00898968428373,-0.0201215017587,-0.292754977942,-0.955933570862,0.0,0.0,0.0,0.0,0.0,0.0,0.0,0.0,0.0,-0.00173745967913,0.0010717860423,-0.000954841903877,0.0,0.0,0.0,0.0,0.0,0.0,0.0,0.0,0.0,-0.444224029779,-0.0514469593763,9.88010025024,0.0,0.0,0.0,0.0,0.0,0.0,0.0,0.0,0.0
1745400044225597658,5661,1745400044225346851,gyro_link,0.00898964796215,-0.0201212279499,-0.292757421732,-0.955932855606,0.0,0.0,0.0,0.0,0.0,0.0,0.0,0.0,0.0,-0.000139645897434,0.0010717860423,-0.00093860301422,0.0,0.0,0.0,0.0,0.0,0.0,0.0,0.0,0.0,-0.434695124626,-0.0406637080014,9.88371562958,0.0,0.0,0.0,0.0,0.0,0.0,0.0,0.0,0.0
1745400044235780398,5662,1745400044235380377,gyro_link,0.00898582022637,-0.0201242994517,-0.292761683464,-0.955931484699,0.0,0.0,0.0,0.0,0.0,0.0,0.0,0.0,0.0,-0.000672351976391,-0.000526078452822,-0.000933907285798,0.0,0.0,0.0,0.0,0.0,0.0,0.0,0.0,0.0,-0.43944144249,-0.0466645024717,9.88011837006,0.0,0.0,0.0,0.0,0.0,0.0,0.0,0.0,0.0
1745400044245636355,5663,1745400044245344080,gyro_link,0.00898807123303,-0.0201308894902,-0.292762309313,-0.955931067467,0.0,0.0,0.0,0.0,0.0,0.0,0.0,0.0,0.0,-0.000134267276735,0.000535794941243,-0.00146782759111,0.0,0.0,0.0,0.0,0.0,0.0,0.0,0.0,0.0,-0.423741221428,-0.0503496825695,9.86475658417,0.0,0.0,0.0,0.0,0.0,0.0,0.0,0.0,0.0
1745400044255456080,5664,1745400044255219220,gyro_link,0.00899097602814,-0.0201356243342,-0.292759358883,-0.955931901932,0.0,0.0,0.0,0.0,0.0,0.0,0.0,0.0,0.0,0.00146361708175,0.00160103791859,-0.00145832833368,0.0,0.0,0.0,0.0,0.0,0.0,0.0,0.0,0.0,-0.422510027885,-0.0647197887301,9.86127376556,0.0,0.0,0.0,0.0,0.0,0.0,0.0,0.0,0.0
1745400044265479774,5665,1745400044265242879,gyro_link,0.00899378024042,-0.0201388020068,-0.292755156755,-0.955933094025,0.0,0.0,0.0,0.0,0.0,0.0,0.0,0.0,0.0,-0.000134233021527,0.0010684162844,-0.0014711972326,0.0,0.0,0.0,0.0,0.0,0.0,0.0,0.0,0.0,-0.435636490583,-0.0551699846983,9.85868740082,0.0,0.0,0.0,0.0,0.0,0.0,0.0,0.0,0.0
1745400044275523334,5666,1745400044275216968,gyro_link,0.0089899385348,-0.0201407279819,-0.292754977942,-0.955933094025,0.0,0.0,0.0,0.0,0.0,0.0,0.0,0.0,0.0,-0.00175369810313,0.00108189531602,0.000642939878162,0.0,0.0,0.0,0.0,0.0,0.0,0.0,0.0,0.0,-0.422436535358,-0.0552002377808,9.8540391922,0.0,0.0,0.0,0.0,0.0,0.0,0.0,0.0,0.0
1745400044285633846,5667,1745400044285314431,gyro_link,0.00899067986757,-0.0201391130686,-0.292756944895,-0.955932497978,0.0,0.0,0.0,0.0,0.0,0.0,0.0,0.0,0.0,-0.000134164540214,0.00213365978561,-0.00147793628275,0.0,0.0,0.0,0.0,0.0,0.0,0.0,0.0,0.0,-0.424863427877,-0.0444169901311,9.8575334549,0.0,0.0,0.0,0.0,0.0,0.0,0.0,0.0,0.0
1745400044295686674,5668,1745400044295322693,gyro_link,0.00899042189121,-0.0201411414891,-0.292759746313,-0.955931663513,0.0,0.0,0.0,0.0,0.0,0.0,0.0,0.0,0.0,-0.00119402864948,0.00106504652649,-0.00201461696997,0.0,0.0,0.0,0.0,0.0,0.0,0.0,0.0,0.0,-0.43197670579,-0.0528241246939,9.85153579712,0.0,0.0,0.0,0.0,0.0,0.0,0.0,0.0,0.0
1745400044305690213,5669,1745400044305300550,gyro_link,0.00898718740791,-0.02014147304,-0.292762815952,-0.955930769444,0.0,0.0,0.0,0.0,0.0,0.0,0.0,0.0,0.0,-0.000672249298077,0.0010717860423,-0.000944015977439,0.0,0.0,0.0,0.0,0.0,0.0,0.0,0.0,0.0,-0.429756760597,-0.0694568753242,9.86840438843,0.0,0.0,0.0,0.0,0.0,0.0,0.0,0.0,0.0
1745400044315608920,5670,1745400044315325064,gyro_link,0.00898854155093,-0.0201403908432,-0.292763411999,-0.955930531025,0.0,0.0,0.0,0.0,0.0,0.0,0.0,0.0,0.0,-0.000672317750286,6.54310179016e-06,-0.000937276810873,0.0,0.0,0.0,0.0,0.0,0.0,0.0,0.0,0.0,-0.439271688461,-0.0527484752238,9.86341953278,0.0,0.0,0.0,0.0,0.0,0.0,0.0,0.0,0.0
1745400044325519452,5671,1745400044325283721,gyro_link,0.00899480190128,-0.020138785243,-0.292764127254,-0.955930292606,0.0,0.0,0.0,0.0,0.0,0.0,0.0,0.0,0.0,-0.00067773059709,9.91284105112e-06,-0.000404683232773,0.0,0.0,0.0,0.0,0.0,0.0,0.0,0.0,0.0,-0.42620614171,-0.0646517053246,9.87199783325,0.0,0.0,0.0,0.0,0.0,0.0,0.0,0.0,0.0
1745400044335818070,5672,1745400044335363702,gyro_link,0.00899445172399,-0.0201393887401,-0.29275944829,-0.955931782722,0.0,0.0,0.0,0.0,0.0,0.0,0.0,0.0,0.0,-0.00228088861331,0.0010785254417,0.000104932834802,0.0,0.0,0.0,0.0,0.0,0.0,0.0,0.0,0.0,-0.420190691948,-0.047935757786,9.86836528778,0.0,0.0,0.0,0.0,0.0,0.0,0.0,0.0,0.0
1745400044345748512,5673,1745400044345374361,gyro_link,0.00899311061949,-0.0201414860785,-0.292769253254,-0.955928623676,0.0,0.0,0.0,0.0,0.0,0.0,0.0,0.0,0.0,0.000398372183554,0.0010684162844,-0.00146578426939,0.0,0.0,0.0,0.0,0.0,0.0,0.0,0.0,0.0,-0.426168560982,-0.0467401482165,9.86829662323,0.0,0.0,0.0,0.0,0.0,0.0,0.0,0.0,0.0
1745400044357135883,5674,1745400044356505045,gyro_link,0.00899452250451,-0.0201447866857,-0.292768925428,-0.955928742886,0.0,0.0,0.0,0.0,0.0,0.0,0.0,0.0,0.0,0.000387512263842,0.000542534457054,-0.000397226860514,0.0,0.0,0.0,0.0,0.0,0.0,0.0,0.0,0.0,-0.432171314955,-0.0550943389535,9.87068080902,0.0,0.0,0.0,0.0,0.0,0.0,0.0,0.0,0.0
1745400044365621058,5675,1745400044365307569,gyro_link,0.0089929709211,-0.0201477278024,-0.292768448591,-0.955928862095,0.0,0.0,0.0,0.0,0.0,0.0,0.0,0.0,0.0,-0.0012048544595,0.0010717860423,-0.000949428940658,0.0,0.0,0.0,0.0,0.0,0.0,0.0,0.0,0.0,-0.433367103338,-0.0586811937392,9.87069129944,0.0,0.0,0.0,0.0,0.0,0.0,0.0,0.0,0.0
1745400044375719104,5676,1745400044375316956,gyro_link,0.00899588968605,-0.0201465319842,-0.292769312859,-0.955928504467,0.0,0.0,0.0,0.0,0.0,0.0,0.0,0.0,0.0,-0.000139577416121,0.00213702931069,-0.000945342180785,0.0,0.0,0.0,0.0,0.0,0.0,0.0,0.0,0.0,-0.422801345587,-0.0597557835281,9.88993740082,0.0,0.0,0.0,0.0,0.0,0.0,0.0,0.0,0.0
1745400044386211719,5677,1745400044385314787,gyro_link,0.00899578817189,-0.0201482530683,-0.292769610882,-0.955928325653,0.0,0.0,0.0,0.0,0.0,0.0,0.0,0.0,0.0,-0.000145058744238,0.00107515568379,-0.000406009407016,0.0,0.0,0.0,0.0,0.0,0.0,0.0,0.0,0.0,-0.427255600691,-0.0599600300193,9.85760688782,0.0,0.0,0.0,0.0,0.0,0.0,0.0,0.0,0.0
1745400044395635050,5678,1745400044395337356,gyro_link,0.00899515487254,-0.0201462507248,-0.292771995068,-0.955927848816,0.0,0.0,0.0,0.0,0.0,0.0,0.0,0.0,0.0,-0.00174838828389,-0.000519338995218,0.000120454496937,0.0,0.0,0.0,0.0,0.0,0.0,0.0,0.0,0.0,-0.4152751863,-0.0539970509708,9.85530090332,0.0,0.0,0.0,0.0,0.0,0.0,0.0,0.0,0.0
1745400044405511625,5679,1745400044405230732,gyro_link,0.00899598468095,-0.0201405882835,-0.292764753103,-0.955930054188,0.0,0.0,0.0,0.0,0.0,0.0,0.0,0.0,0.0,-0.000139680152643,0.000539164640941,-0.000935233430937,0.0,0.0,0.0,0.0,0.0,0.0,0.0,0.0,0.0,-0.439199268818,-0.0599675886333,9.85629081726,0.0,0.0,0.0,0.0,0.0,0.0,0.0,0.0,0.0
1745400044415522168,5680,1745400044415275806,gyro_link,0.00899111665785,-0.0201402902603,-0.292765796185,-0.955929815769,0.0,0.0,0.0,0.0,0.0,0.0,0.0,0.0,0.0,-0.0012048202334,0.0016044076765,-0.00095279852394,0.0,0.0,0.0,0.0,0.0,0.0,0.0,0.0,0.0,-0.433319091797,-0.0682763680816,9.86596870422,0.0,0.0,0.0,0.0,0.0,0.0,0.0,0.0,0.0
1745400044425500777,5681,1745400044425244623,gyro_link,0.00899107381701,-0.020143147558,-0.292753696442,-0.955933451653,0.0,0.0,0.0,0.0,0.0,0.0,0.0,0.0,0.0,-0.000150471591041,0.0010785254417,0.000126584680402,0.0,0.0,0.0,0.0,0.0,0.0,0.0,0.0,0.0,-0.415481895208,-0.057455316186,9.87564754486,0.0,0.0,0.0,0.0,0.0,0.0,0.0,0.0,0.0
1745400044437765852,5682,1745400044436348732,gyro_link,0.0089937960729,-0.0201407615095,-0.292755514383,-0.955932855606,0.0,0.0,0.0,0.0,0.0,0.0,0.0,0.0,0.0,0.000930977344979,0.0010684162844,-0.00146037130617,0.0,0.0,0.0,0.0,0.0,0.0,0.0,0.0,0.0,-0.433572888374,-0.0465964190662,9.89093971252,0.0,0.0,0.0,0.0,0.0,0.0,0.0,0.0,0.0
1745400044446397932,5683,1745400044446072469,gyro_link,0.00899197999388,-0.0201405063272,-0.292755931616,-0.955932736397,0.0,0.0,0.0,0.0,0.0,0.0,0.0,0.0,0.0,0.000398337957449,0.000535794941243,-0.00146241462789,0.0,0.0,0.0,0.0,0.0,0.0,0.0,0.0,0.0,-0.409407138824,-0.062298309058,9.8661737442,0.0,0.0,0.0,0.0,0.0,0.0,0.0,0.0,0.0
1745400044458730659,5684,1745400044457726754,gyro_link,0.00898911710829,-0.020138643682,-0.292759418488,-0.955931782722,0.0,0.0,0.0,0.0,0.0,0.0,0.0,0.0,0.0,-0.000656079151668,-3.56612758878e-06,-0.00253505911678,0.0,0.0,0.0,0.0,0.0,0.0,0.0,0.0,0.0,-0.423656463623,-0.0551851093769,9.85641860962,0.0,0.0,0.0,0.0,0.0,0.0,0.0,0.0,0.0
1745400044465681381,5685,1745400044465459019,gyro_link,0.00899015460163,-0.0201398544014,-0.292758136988,-0.955932199955,0.0,0.0,0.0,0.0,0.0,0.0,0.0,0.0,0.0,0.000376789248548,0.00214713858441,0.00065785262268,0.0,0.0,0.0,0.0,0.0,0.0,0.0,0.0,0.0,-0.433160573244,-0.060005415231,9.85037326813,0.0,0.0,0.0,0.0,0.0,0.0,0.0,0.0,0.0
1745400044476482691,5686,1745400044476280979,gyro_link,0.0089910523966,-0.0201408658177,-0.292758405209,-0.955932021141,0.0,0.0,0.0,0.0,0.0,0.0,0.0,0.0,0.0,-0.00174294109456,9.91284105112e-06,-0.000415509159211,0.0,0.0,0.0,0.0,0.0,0.0,0.0,0.0,0.0,-0.42871850729,-0.0597936026752,9.88389778137,0.0,0.0,0.0,0.0,0.0,0.0,0.0,0.0,0.0
1745400044485883296,5687,1745400044485636681,gyro_link,0.00899204239249,-0.0201397687197,-0.292756378651,-0.955932676792,0.0,0.0,0.0,0.0,0.0,0.0,0.0,0.0,0.0,-0.00173749390524,0.000539164640941,-0.000951472320594,0.0,0.0,0.0,0.0,0.0,0.0,0.0,0.0,0.0,-0.428585350513,-0.0670505017042,9.87079238892,0.0,0.0,0.0,0.0,0.0,0.0,0.0,0.0,0.0
1745400044495600390,5688,1745400044495322457,gyro_link,0.00899380259216,-0.0201392695308,-0.292753428221,-0.955933511257,0.0,0.0,0.0,0.0,0.0,0.0,0.0,0.0,0.0,-0.000688487838488,0.00108189531602,0.000653765862808,0.0,0.0,0.0,0.0,0.0,0.0,0.0,0.0,0.0,-0.428511172533,-0.0479660145938,9.86349773407,0.0,0.0,0.0,0.0,0.0,0.0,0.0,0.0,0.0
1745400044505460121,5689,1745400044505242830,gyro_link,0.0089993821457,-0.0201396644115,-0.292753636837,-0.955933451653,0.0,0.0,0.0,0.0,0.0,0.0,0.0,0.0,0.0,-0.00119402864948,0.00106504652649,-0.00201461696997,0.0,0.0,0.0,0.0,0.0,0.0,0.0,0.0,0.0,-0.439345270395,-0.0622680447996,9.87065315247,0.0,0.0,0.0,0.0,0.0,0.0,0.0,0.0,0.0
1745400044515563722,5690,1745400044515325397,gyro_link,0.00899518281221,-0.0201428774744,-0.292754888535,-0.95593303442,0.0,0.0,0.0,0.0,0.0,0.0,0.0,0.0,0.0,0.000398372183554,0.0010684162844,-0.00146578426939,0.0,0.0,0.0,0.0,0.0,0.0,0.0,0.0,0.0,-0.41799429059,-0.0525971911848,9.88754844666,0.0,0.0,0.0,0.0,0.0,0.0,0.0,0.0,0.0
1745400044528750247,5691,1745400044528298072,gyro_link,0.00899537745863,-0.0201459266245,-0.2927518785,-0.955933868885,0.0,0.0,0.0,0.0,0.0,0.0,0.0,0.0,0.0,-0.00227557867765,-0.000522708753124,-0.000417552539147,0.0,0.0,0.0,0.0,0.0,0.0,0.0,0.0,0.0,-0.439211130142,-0.0551775470376,9.85745620728,0.0,0.0,0.0,0.0,0.0,0.0,0.0,0.0,0.0
1745400044537610013,5692,1745400044535897500,gyro_link,0.00899452436715,-0.0201414022595,-0.292752742767,-0.95593380928,0.0,0.0,0.0,0.0,0.0,0.0,0.0,0.0,0.0,-0.000139680152643,0.000539164640941,-0.000935233430937,0.0,0.0,0.0,0.0,0.0,0.0,0.0,0.0,0.0,-0.419152915478,-0.0454461947083,9.88390350342,0.0,0.0,0.0,0.0,0.0,0.0,0.0,0.0,0.0
1745400044546366113,5693,1745400044545387714,gyro_link,0.00899476651102,-0.0201435722411,-0.292752683163,-0.955933690071,0.0,0.0,0.0,0.0,0.0,0.0,0.0,0.0,0.0,-0.00121568015311,0.0010785254417,0.000115758753964,0.0,0.0,0.0,0.0,0.0,0.0,0.0,0.0,0.0,-0.436892896891,-0.0563277751207,9.86466121674,0.0,0.0,0.0,0.0,0.0,0.0,0.0,0.0,0.0
1745400044560472560,5694,1745400044558389513,gyro_link,0.00899326894432,-0.0201405622065,-0.292756199837,-0.955932736397,0.0,0.0,0.0,0.0,0.0,0.0,0.0,0.0,0.0,0.00252879108302,0.0010684162844,-0.00144413230009,0.0,0.0,0.0,0.0,0.0,0.0,0.0,0.0,0.0,-0.434453010559,-0.0539667978883,9.85988807678,0.0,0.0,0.0,0.0,0.0,0.0,0.0,0.0,0.0
1745400044567359992,5695,1745400044566487721,gyro_link,0.00900082290173,-0.0201411191374,-0.292752325535,-0.95593380928,0.0,0.0,0.0,0.0,0.0,0.0,0.0,0.0,0.0,-0.0012048544595,0.0010717860423,-0.000949428940658,0.0,0.0,0.0,0.0,0.0,0.0,0.0,0.0,0.0,-0.429805487394,-0.0706222355366,9.87319469452,0.0,0.0,0.0,0.0,0.0,0.0,0.0,0.0,0.0
1745400044578128420,5696,1745400044577780227,gyro_link,0.00900226831436,-0.02013489604,-0.292751938105,-0.955933988094,0.0,0.0,0.0,0.0,0.0,0.0,0.0,0.0,0.0,-0.00015050584625,0.000545904156752,0.000129954249132,0.0,0.0,0.0,0.0,0.0,0.0,0.0,0.0,0.0,-0.439319998026,-0.047935757786,9.86817073822,0.0,0.0,0.0,0.0,0.0,0.0,0.0,0.0,0.0
1745400044585677266,5697,1745400044585382220,gyro_link,0.0090037016198,-0.0201330333948,-0.2927544415,-0.955933332443,0.0,0.0,0.0,0.0,0.0,0.0,0.0,0.0,0.0,0.000382133584935,0.0010785254417,0.000131997643621,0.0,0.0,0.0,0.0,0.0,0.0,0.0,0.0,0.0,-0.424960315228,-0.0395739860833,9.86706733704,0.0,0.0,0.0,0.0,0.0,0.0,0.0,0.0,0.0
1745400044596676165,5698,1745400044595442195,gyro_link,0.00900086760521,-0.0201358366758,-0.292754769325,-0.955933213234,0.0,0.0,0.0,0.0,0.0,0.0,0.0,0.0,0.0,0.000398440693971,0.00213365978561,-0.00147252331953,0.0,0.0,0.0,0.0,0.0,0.0,0.0,0.0,0.0,-0.420457839966,-0.0453781187534,9.89465236664,0.0,0.0,0.0,0.0,0.0,0.0,0.0,0.0,0.0
1745400044607281545,5699,1745400044606988866,gyro_link,0.00900478567928,-0.0201363358647,-0.292745769024,-0.955935895443,0.0,0.0,0.0,0.0,0.0,0.0,0.0,0.0,0.0,0.000398337957449,0.000535794941243,-0.00146241462789,0.0,0.0,0.0,0.0,0.0,0.0,0.0,0.0,0.0,-0.428754389286,-0.0502059645951,9.88742446899,0.0,0.0,0.0,0.0,0.0,0.0,0.0,0.0,0.0
1745400044616312345,5700,1745400044615331562,gyro_link,0.0090060159564,-0.0201369971037,-0.292743295431,-0.955936670303,0.0,0.0,0.0,0.0,0.0,0.0,0.0,0.0,0.0,-0.00121030141599,0.000542534457054,-0.000413465750171,0.0,0.0,0.0,0.0,0.0,0.0,0.0,0.0,0.0,-0.428475737572,-0.0635317489505,9.86000919342,0.0,0.0,0.0,0.0,0.0,0.0,0.0,0.0,0.0
1745400044628867934,5701,1745400044628508699,gyro_link,0.00900643970817,-0.0201355665922,-0.29274687171,-0.955935537815,0.0,0.0,0.0,0.0,0.0,0.0,0.0,0.0,0.0,0.000398337957449,0.000535794941243,-0.00146241462789,0.0,0.0,0.0,0.0,0.0,0.0,0.0,0.0,0.0,-0.431048691273,-0.0562445707619,9.87787246704,0.0,0.0,0.0,0.0,0.0,0.0,0.0,0.0,0.0
1745400044638029356,5702,1745400044637046770,gyro_link,0.0090037509799,-0.0201356485486,-0.292744845152,-0.955936133862,0.0,0.0,0.0,0.0,0.0,0.0,0.0,0.0,0.0,-0.000661423546262,0.00106504652649,-0.00200920412317,0.0,0.0,0.0,0.0,0.0,0.0,0.0,0.0,0.0,-0.426096260548,-0.0563504658639,9.86118412018,0.0,0.0,0.0,0.0,0.0,0.0,0.0,0.0,0.0
1745400044648888573,5703,1745400044645743197,gyro_link,0.00900261104107,-0.0201316643506,-0.292746812105,-0.955935716629,0.0,0.0,0.0,0.0,0.0,0.0,0.0,0.0,0.0,-0.000666836451273,0.0010684162844,-0.00147661019582,0.0,0.0,0.0,0.0,0.0,0.0,0.0,0.0,0.0,-0.42849946022,-0.0539516508579,9.86233997345,0.0,0.0,0.0,0.0,0.0,0.0,0.0,0.0,0.0
1745400044657420665,5704,1745400044657115949,gyro_link,0.00900563038886,-0.0201310385019,-0.292746722698,-0.955935657024,0.0,0.0,0.0,0.0,0.0,0.0,0.0,0.0,0.0,-0.00225937413052,-0.00106543966103,-0.00201196479611,0.0,0.0,0.0,0.0,0.0,0.0,0.0,0.0,0.0,-0.422618478537,-0.0503042936325,9.87194347382,0.0,0.0,0.0,0.0,0.0,0.0,0.0,0.0,0.0
1745400044665448334,5705,1745400044665172078,gyro_link,0.00900821667165,-0.0201305244118,-0.292753279209,-0.955933630466,0.0,0.0,0.0,0.0,0.0,0.0,0.0,0.0,0.0,-0.000693934969604,0.000552643672563,0.00118972989731,0.0,0.0,0.0,0.0,0.0,0.0,0.0,0.0,0.0,-0.437015175819,-0.0682083070278,9.87669277191,0.0,0.0,0.0,0.0,0.0,0.0,0.0,0.0,0.0
1745400044675561821,5706,1745400044675321936,gyro_link,0.00900775939226,-0.0201265271753,-0.292756795883,-0.955932736397,0.0,0.0,0.0,0.0,0.0,0.0,0.0,0.0,0.0,0.000398406467866,0.00160103791859,-0.00146915426012,0.0,0.0,0.0,0.0,0.0,0.0,0.0,0.0,0.0,-0.419079840183,-0.0419047176838,9.8767080307,0.0,0.0,0.0,0.0,0.0,0.0,0.0,0.0,0.0
1745400044688198702,5707,1745400044687834761,gyro_link,0.00901263952255,-0.020126529038,-0.292756527662,-0.955932736397,0.0,0.0,0.0,0.0,0.0,0.0,0.0,0.0,0.0,0.00146902806591,0.00159766816068,-0.00199092179537,0.0,0.0,0.0,0.0,0.0,0.0,0.0,0.0,0.0,-0.441590368748,-0.0587719716132,9.85625839233,0.0,0.0,0.0,0.0,0.0,0.0,0.0,0.0,0.0
1745400044695410622,5708,1745400044695219719,gyro_link,0.00900888442993,-0.0201231669635,-0.292760282755,-0.955931603909,0.0,0.0,0.0,0.0,0.0,0.0,0.0,0.0,0.0,-0.00121030141599,0.000542534457054,-0.000413465750171,0.0,0.0,0.0,0.0,0.0,0.0,0.0,0.0,0.0,-0.429840385914,-0.0466871969402,9.87662982941,0.0,0.0,0.0,0.0,0.0,0.0,0.0,0.0,0.0
1745400044705647854,5709,1745400044705410039,gyro_link,0.00901155825704,-0.0201277453452,-0.29275727272,-0.955932497978,0.0,0.0,0.0,0.0,0.0,0.0,0.0,0.0,0.0,-0.000683109217789,0.000545904156752,0.000124541300465,0.0,0.0,0.0,0.0,0.0,0.0,0.0,0.0,0.0,-0.432158619165,-0.0467325821519,9.86943149567,0.0,0.0,0.0,0.0,0.0,0.0,0.0,0.0,0.0
1745400044715592221,5710,1745400044715388476,gyro_link,0.00901615060866,-0.020127421245,-0.292759746313,-0.955931663513,0.0,0.0,0.0,0.0,0.0,0.0,0.0,0.0,0.0,-0.0022592372261,0.00106504652649,-0.00202544289641,0.0,0.0,0.0,0.0,0.0,0.0,0.0,0.0,0.0,-0.418006062508,-0.0466115511954,9.88870620728,0.0,0.0,0.0,0.0,0.0,0.0,0.0,0.0,0.0
1745400044725756537,5711,1745400044725428756,gyro_link,0.00902071595192,-0.0201231203973,-0.292762964964,-0.955930769444,0.0,0.0,0.0,0.0,0.0,0.0,0.0,0.0,0.0,-0.000677696370985,0.000542534457054,-0.000408052786952,0.0,0.0,0.0,0.0,0.0,0.0,0.0,0.0,0.0,-0.426278710365,-0.0586282424629,9.87913227081,0.0,0.0,0.0,0.0,0.0,0.0,0.0,0.0,0.0
1745400044735543630,5712,1745400044735322346,gyro_link,0.00902317930013,-0.0201251991093,-0.292765557766,-0.955929875374,0.0,0.0,0.0,0.0,0.0,0.0,0.0,0.0,0.0,-0.00119409733452,-1.96385144591e-07,-0.00200787791982,0.0,0.0,0.0,0.0,0.0,0.0,0.0,0.0,0.0,-0.440284788609,-0.0492750927806,9.84545135498,0.0,0.0,0.0,0.0,0.0,0.0,0.0,0.0,0.0
1745400044745427324,5713,1745400044745204574,gyro_link,0.00902465824038,-0.0201268568635,-0.292770028114,-0.955928444862,0.0,0.0,0.0,0.0,0.0,0.0,0.0,0.0,0.0,-0.00119947572239,0.000535794941243,-0.00147865351755,0.0,0.0,0.0,0.0,0.0,0.0,0.0,0.0,0.0,-0.42240011692,-0.0564185716212,9.85045909882,0.0,0.0,0.0,0.0,0.0,0.0,0.0,0.0,0.0
1745400044755417246,5714,1745400044755175422,gyro_link,0.00902397278696,-0.0201298091561,-0.292765051126,-0.955929994583,0.0,0.0,0.0,0.0,0.0,0.0,0.0,0.0,0.0,-0.000672317750286,6.54310179016e-06,-0.000937276810873,0.0,0.0,0.0,0.0,0.0,0.0,0.0,0.0,0.0,-0.424889028072,-0.06472735852,9.86005306244,0.0,0.0,0.0,0.0,0.0,0.0,0.0,0.0,0.0
1745400044765399570,5715,1745400044765205257,gyro_link,0.0090308142826,-0.0201319698244,-0.292763441801,-0.955930292606,0.0,0.0,0.0,0.0,0.0,0.0,0.0,0.0,0.0,-0.00120488868561,0.000539164640941,-0.000946059357375,0.0,0.0,0.0,0.0,0.0,0.0,0.0,0.0,0.0,-0.428390145302,-0.05521536991,9.85158729553,0.0,0.0,0.0,0.0,0.0,0.0,0.0,0.0,0.0
1745400044775452306,5716,1745400044775286728,gyro_link,0.00903136376292,-0.020127505064,-0.292761206627,-0.955931067467,0.0,0.0,0.0,0.0,0.0,0.0,0.0,0.0,0.0,-0.00012888868514,-1.96385144591e-07,-0.00199705199338,0.0,0.0,0.0,0.0,0.0,0.0,0.0,0.0,0.0,-0.423778265715,-0.0598919503391,9.86840438843,0.0,0.0,0.0,0.0,0.0,0.0,0.0,0.0,0.0
1745400044785471729,5717,1745400044785230121,gyro_link,0.00903042592108,-0.0201238486916,-0.292764186859,-0.955930292606,0.0,0.0,0.0,0.0,0.0,0.0,0.0,0.0,0.0,-0.00121026718989,0.00107515568379,-0.000416835333453,0.0,0.0,0.0,0.0,0.0,0.0,0.0,0.0,0.0,-0.417788416147,-0.0634863600135,9.8672914505,0.0,0.0,0.0,0.0,0.0,0.0,0.0,0.0,0.0
1745400044795394146,5718,1745400044795248495,gyro_link,0.00903134047985,-0.0201263334602,-0.292763829231,-0.955930292606,0.0,0.0,0.0,0.0,0.0,0.0,0.0,0.0,0.0,-0.00173204671592,0.0010684162844,-0.00148743658792,0.0,0.0,0.0,0.0,0.0,0.0,0.0,0.0,0.0,-0.441359251738,-0.0553288385272,9.83351993561,0.0,0.0,0.0,0.0,0.0,0.0,0.0,0.0,0.0
1745400044806785238,5719,1745400044805757185,gyro_link,0.00903138238937,-0.0201247762889,-0.292763322592,-0.95593047142,0.0,0.0,0.0,0.0,0.0,0.0,0.0,0.0,0.0,-0.00119396019727,0.00213028979488,-0.00202135625295,0.0,0.0,0.0,0.0,0.0,0.0,0.0,0.0,0.0,-0.433330625296,-0.058703891933,9.86710357666,0.0,0.0,0.0,0.0,0.0,0.0,0.0,0.0,0.0
1745400044817673653,5720,1745400044816695068,gyro_link,0.0090323491022,-0.0201267395169,-0.292764872313,-0.955929994583,0.0,0.0,0.0,0.0,0.0,0.0,0.0,0.0,0.0,-0.000145127254655,9.91284105112e-06,-0.000399270269554,0.0,0.0,0.0,0.0,0.0,0.0,0.0,0.0,0.0,-0.423814564943,-0.0574780143797,9.87197685242,0.0,0.0,0.0,0.0,0.0,0.0,0.0,0.0,0.0
1745400044827853376,5721,1745400044827621009,gyro_link,0.00903241429478,-0.0201233066618,-0.29276534915,-0.955929934978,0.0,0.0,0.0,0.0,0.0,0.0,0.0,0.0,0.0,-0.000656044925563,0.000529055483639,-0.00253842887469,0.0,0.0,0.0,0.0,0.0,0.0,0.0,0.0,0.0,-0.430781602859,-0.0599978491664,9.85159301758,0.0,0.0,0.0,0.0,0.0,0.0,0.0,0.0,0.0
1745400044835961319,5722,1745400044835498148,gyro_link,0.00902999937534,-0.0201239641756,-0.292764306068,-0.955930173397,0.0,0.0,0.0,0.0,0.0,0.0,0.0,0.0,0.0,-0.000672146503348,0.00266965059564,-0.000954124669079,0.0,0.0,0.0,0.0,0.0,0.0,0.0,0.0,0.0,-0.433476269245,-0.0562218911946,9.88143539429,0.0,0.0,0.0,0.0,0.0,0.0,0.0,0.0,0.0
1745400044846164510,5723,1745400044845783693,gyro_link,0.00903058610857,-0.02011763677,-0.292763769627,-0.95593059063,0.0,0.0,0.0,0.0,0.0,0.0,0.0,0.0,0.0,-0.00227557867765,-0.000522708753124,-0.000417552539147,0.0,0.0,0.0,0.0,0.0,0.0,0.0,0.0,0.0,-0.430829674006,-0.0515982508659,9.85632228851,0.0,0.0,0.0,0.0,0.0,0.0,0.0,0.0,0.0
1745400044858451707,5724,1745400044855314023,gyro_link,0.00903231091797,-0.0201182309538,-0.292759388685,-0.955931901932,0.0,0.0,0.0,0.0,0.0,0.0,0.0,0.0,0.0,0.000376755022444,0.00161451695021,0.000661222205963,0.0,0.0,0.0,0.0,0.0,0.0,0.0,0.0,0.0,-0.431072741747,-0.0526425875723,9.88024139404,0.0,0.0,0.0,0.0,0.0,0.0,0.0,0.0,0.0
1745400044865378166,5725,1745400044865193248,gyro_link,0.00903206411749,-0.020120061934,-0.292761594057,-0.955931067467,0.0,0.0,0.0,0.0,0.0,0.0,0.0,0.0,0.0,0.000387512263842,0.000542534457054,-0.000397226860514,0.0,0.0,0.0,0.0,0.0,0.0,0.0,0.0,0.0,-0.439332097769,-0.0467325821519,9.86935901642,0.0,0.0,0.0,0.0,0.0,0.0,0.0,0.0,0.0
1745400044875629665,5726,1745400044875338545,gyro_link,0.00903480313718,-0.0201181359589,-0.292761623859,-0.955931067467,0.0,0.0,0.0,0.0,0.0,0.0,0.0,0.0,0.0,-0.000144990262925,0.00214039906859,-0.000412748544477,0.0,0.0,0.0,0.0,0.0,0.0,0.0,0.0,0.0,-0.429804772139,-0.0598616786301,9.87312698364,0.0,0.0,0.0,0.0,0.0,0.0,0.0,0.0,0.0
1745400044885661832,5727,1745400044885326099,gyro_link,0.00903585366905,-0.0201163887978,-0.292762130499,-0.955931007862,0.0,0.0,0.0,0.0,0.0,0.0,0.0,0.0,0.0,-0.000666836451273,0.0010684162844,-0.00147661019582,0.0,0.0,0.0,0.0,0.0,0.0,0.0,0.0,0.0,-0.423886805773,-0.046672064811,9.8790807724,0.0,0.0,0.0,0.0,0.0,0.0,0.0,0.0,0.0
1745400044895591166,5728,1745400044895309859,gyro_link,0.00903625413775,-0.0201150178909,-0.29276368022,-0.95593059063,0.0,0.0,0.0,0.0,0.0,0.0,0.0,0.0,0.0,0.000387512263842,0.000542534457054,-0.000397226860514,0.0,0.0,0.0,0.0,0.0,0.0,0.0,0.0,0.0,-0.420154422522,-0.0503496825695,9.86479377747,0.0,0.0,0.0,0.0,0.0,0.0,0.0,0.0,0.0
1745400044905621341,5729,1745400044905294209,gyro_link,0.00903890095651,-0.0201145485044,-0.292763382196,-0.95593059063,0.0,0.0,0.0,0.0,0.0,0.0,0.0,0.0,0.0,-0.000677662144881,0.00107515568379,-0.000411422341131,0.0,0.0,0.0,0.0,0.0,0.0,0.0,0.0,0.0,-0.438258349895,-0.0526350028813,9.88136482239,0.0,0.0,0.0,0.0,0.0,0.0,0.0,0.0,0.0
1745400044917864077,5730,1745400044917343944,gyro_link,0.00903757009655,-0.0201104544103,-0.292765557766,-0.955930113792,0.0,0.0,0.0,0.0,0.0,0.0,0.0,0.0,0.0,-0.0001612631022,0.00161788670812,0.00118840369396,0.0,0.0,0.0,0.0,0.0,0.0,0.0,0.0,0.0,-0.428462862968,-0.0527787543833,9.85874557495,0.0,0.0,0.0,0.0,0.0,0.0,0.0,0.0,0.0
1745400044932000976,5731,1745400044927045852,gyro_link,0.00903826206923,-0.0201119333506,-0.292766779661,-0.955929636955,0.0,0.0,0.0,0.0,0.0,0.0,0.0,0.0,0.0,-0.00173208094202,0.000535794941243,-0.00148406694643,0.0,0.0,0.0,0.0,0.0,0.0,0.0,0.0,0.0,-0.432073324919,-0.0431986674666,9.86104011536,0.0,0.0,0.0,0.0,0.0,0.0,0.0,0.0,0.0
1745400044939807295,5732,1745400044937978671,gyro_link,0.00904261507094,-0.020112702623,-0.29276496172,-0.955930173397,0.0,0.0,0.0,0.0,0.0,0.0,0.0,0.0,0.0,0.000392926973291,0.000539164640941,-0.000929820467718,0.0,0.0,0.0,0.0,0.0,0.0,0.0,0.0,0.0,-0.414431929588,-0.0537776835263,9.88998413086,0.0,0.0,0.0,0.0,0.0,0.0,0.0,0.0,0.0
1745400044947497085,5733,1745400044947355942,gyro_link,0.00904842000455,-0.0201121456921,-0.292758285999,-0.95593214035,0.0,0.0,0.0,0.0,0.0,0.0,0.0,0.0,0.0,-0.00227551022545,0.000542534457054,-0.000424291676609,0.0,0.0,0.0,0.0,0.0,0.0,0.0,0.0,0.0,-0.422642797232,-0.0502891689539,9.87433433533,0.0,0.0,0.0,0.0,0.0,0.0,0.0,0.0,0.0
1745400044955530455,5734,1745400044955372158,gyro_link,0.00905474834144,-0.0201097968966,-0.292756855488,-0.955932497978,0.0,0.0,0.0,0.0,0.0,0.0,0.0,0.0,0.0,-0.000683143443894,1.32825844048e-05,0.000127910869196,0.0,0.0,0.0,0.0,0.0,0.0,0.0,0.0,0.0,-0.439538359642,-0.0418215095997,9.88965320587,0.0,0.0,0.0,0.0,0.0,0.0,0.0,0.0,0.0
1745400044965631549,5735,1745400044965339151,gyro_link,0.00905467104167,-0.0201133191586,-0.292754471302,-0.955933213234,0.0,0.0,0.0,0.0,0.0,0.0,0.0,0.0,0.0,-0.000666904903483,3.1733582091e-06,-0.00146987102926,0.0,0.0,0.0,0.0,0.0,0.0,0.0,0.0,0.0,-0.418911576271,-0.0707054808736,9.86015129089,0.0,0.0,0.0,0.0,0.0,0.0,0.0,0.0,0.0
1745400044975653326,5736,1745400044975347494,gyro_link,0.00905483867973,-0.0201122369617,-0.292752295732,-0.955933868885,0.0,0.0,0.0,0.0,0.0,0.0,0.0,0.0,0.0,0.000920151651371,0.00107515568379,-0.000395183451474,0.0,0.0,0.0,0.0,0.0,0.0,0.0,0.0,0.0,-0.419202953577,-0.0669370517135,9.88882350922,0.0,0.0,0.0,0.0,0.0,0.0,0.0,0.0,0.0
1745400044985612007,5737,1745400044985299892,gyro_link,0.00905942544341,-0.0201123189181,-0.292753994465,-0.955933332443,0.0,0.0,0.0,0.0,0.0,0.0,0.0,0.0,0.0,-0.00174831959885,0.000545904156752,0.0001137153522,0.0,0.0,0.0,0.0,0.0,0.0,0.0,0.0,0.0,-0.434683859348,-0.0538230873644,9.88260269165,0.0,0.0,0.0,0.0,0.0,0.0,0.0,0.0,0.0
1745400044995626667,5738,1745400044995356916,gyro_link,0.00905843451619,-0.0201125442982,-0.292754590511,-0.955933213234,0.0,0.0,0.0,0.0,0.0,0.0,0.0,0.0,0.0,-0.00119947572239,0.000535794941243,-0.00147865351755,0.0,0.0,0.0,0.0,0.0,0.0,0.0,0.0,0.0,-0.437122523785,-0.0370541587472,9.88725566864,0.0,0.0,0.0,0.0,0.0,0.0,0.0,0.0,0.0
1745400045006597402,5739,1745400045005382123,gyro_link,0.00906370766461,-0.0201172120869,-0.292758464813,-0.955931782722,0.0,0.0,0.0,0.0,0.0,0.0,0.0,0.0,0.0,-0.000666836451273,0.0010684162844,-0.00147661019582,0.0,0.0,0.0,0.0,0.0,0.0,0.0,0.0,0.0,-0.408356070518,-0.0430776327848,9.88041210175,0.0,0.0,0.0,0.0,0.0,0.0,0.0,0.0,0.0
1745400045020526590,5740,1745400045020132338,gyro_link,0.00906221941113,-0.0201189592481,-0.29275649786,-0.955932378769,0.0,0.0,0.0,0.0,0.0,0.0,0.0,0.0,0.0,-0.00121568015311,0.0010785254417,0.000115758753964,0.0,0.0,0.0,0.0,0.0,0.0,0.0,0.0,0.0,-0.427716612816,-0.0477163903415,9.90296363831,0.0,0.0,0.0,0.0,0.0,0.0,0.0,0.0,0.0
1745400045027387473,5741,1745400045026579390,gyro_link,0.0090650729835,-0.020119857043,-0.292754948139,-0.955932736397,0.0,0.0,0.0,0.0,0.0,0.0,0.0,0.0,0.0,0.000398303731345,3.1733582091e-06,-0.00145904510282,0.0,0.0,0.0,0.0,0.0,0.0,0.0,0.0,0.0,-0.429827928543,-0.0419122874737,9.87540340424,0.0,0.0,0.0,0.0,0.0,0.0,0.0,0.0,0.0
1745400045038374255,5742,1745400045038211433,gyro_link,0.00906127691269,-0.0201202481985,-0.292752563953,-0.955933630466,0.0,0.0,0.0,0.0,0.0,0.0,0.0,0.0,0.0,-0.000672249298077,0.0010717860423,-0.000944015977439,0.0,0.0,0.0,0.0,0.0,0.0,0.0,0.0,0.0,-0.422363907099,-0.0600281059742,9.84689617157,0.0,0.0,0.0,0.0,0.0,0.0,0.0,0.0,0.0
1745400045045388136,5743,1745400045045201532,gyro_link,0.00905797258019,-0.0201186165214,-0.292754620314,-0.955932974815,0.0,0.0,0.0,0.0,0.0,0.0,0.0,0.0,0.0,-0.00172670255415,-1.96385144591e-07,-0.00201329099946,0.0,0.0,0.0,0.0,0.0,0.0,0.0,0.0,0.0,-0.435563594103,-0.05521536991,9.85151386261,0.0,0.0,0.0,0.0,0.0,0.0,0.0,0.0,0.0
1745400045055543483,5744,1745400045055244451,gyro_link,0.00905183237046,-0.0201194956899,-0.292753040791,-0.955933630466,0.0,0.0,0.0,0.0,0.0,0.0,0.0,0.0,0.0,-0.000672283524182,0.000539164640941,-0.000940646394156,0.0,0.0,0.0,0.0,0.0,0.0,0.0,0.0,0.0,-0.421459376812,-0.0502816103399,9.87554168701,0.0,0.0,0.0,0.0,0.0,0.0,0.0,0.0,0.0
1745400045065653096,5745,1745400045065300300,gyro_link,0.00905068963766,-0.0201209839433,-0.292752563953,-0.955933749676,0.0,0.0,0.0,0.0,0.0,0.0,0.0,0.0,0.0,-0.000145092999446,0.000542534457054,-0.000402639823733,0.0,0.0,0.0,0.0,0.0,0.0,0.0,0.0,0.0,-0.408379971981,-0.0370844230056,9.88276481628,0.0,0.0,0.0,0.0,0.0,0.0,0.0,0.0,0.0
1745400045075770838,5746,1745400045075360060,gyro_link,0.00904839299619,-0.020118188113,-0.292751550674,-0.955934166908,0.0,0.0,0.0,0.0,0.0,0.0,0.0,0.0,0.0,0.000925564498175,0.0010717860423,-0.000927777087782,0.0,0.0,0.0,0.0,0.0,0.0,0.0,0.0,0.0,-0.441760480404,-0.05866606161,9.87299823761,0.0,0.0,0.0,0.0,0.0,0.0,0.0,0.0,0.0
1745400045085744255,5747,1745400045085352822,gyro_link,0.00904747843742,-0.0201137196273,-0.292750686407,-0.955934405327,0.0,0.0,0.0,0.0,0.0,0.0,0.0,0.0,0.0,0.000903844600543,2.00220747502e-05,0.00120933842845,0.0,0.0,0.0,0.0,0.0,0.0,0.0,0.0,0.0,-0.433246344328,-0.0707130283117,9.8588104248,0.0,0.0,0.0,0.0,0.0,0.0,0.0,0.0,0.0
1745400045097053250,5748,1745400045096647453,gyro_link,0.00904577225447,-0.0201132409275,-0.292747735977,-0.955935418606,0.0,0.0,0.0,0.0,0.0,0.0,0.0,0.0,0.0,-0.000145092999446,0.000542534457054,-0.000402639823733,0.0,0.0,0.0,0.0,0.0,0.0,0.0,0.0,0.0,-0.436930090189,-0.0670656338334,9.86831569672,0.0,0.0,0.0,0.0,0.0,0.0,0.0,0.0,0.0
1745400045105715179,5749,1745400045105301977,gyro_link,0.00904337223619,-0.020112702623,-0.292751669884,-0.955934226513,0.0,0.0,0.0,0.0,0.0,0.0,0.0,0.0,0.0,-0.000666904903483,3.1733582091e-06,-0.00146987102926,0.0,0.0,0.0,0.0,0.0,0.0,0.0,0.0,0.0,-0.440394848585,-0.0599675886333,9.85627841949,0.0,0.0,0.0,0.0,0.0,0.0,0.0,0.0,0.0
1745400045115784978,5750,1745400045115304673,gyro_link,0.00904295314103,-0.0201134197414,-0.292756587267,-0.955932676792,0.0,0.0,0.0,0.0,0.0,0.0,0.0,0.0,0.0,-0.00119402864948,0.00106504652649,-0.00201461696997,0.0,0.0,0.0,0.0,0.0,0.0,0.0,0.0,0.0,-0.431096524,-0.0442581363022,9.88257980347,0.0,0.0,0.0,0.0,0.0,0.0,0.0,0.0,0.0
1745400045125331925,5751,1745400045125189973,gyro_link,0.00904285442084,-0.020112644881,-0.292756736279,-0.955932676792,0.0,0.0,0.0,0.0,0.0,0.0,0.0,0.0,0.0,-0.000145058744238,0.00107515568379,-0.000406009407016,0.0,0.0,0.0,0.0,0.0,0.0,0.0,0.0,0.0,-0.432219237089,-0.0454991534352,9.87540149689,0.0,0.0,0.0,0.0,0.0,0.0,0.0,0.0,0.0
1745400045135398827,5752,1745400045135288868,gyro_link,0.00904682651162,-0.0201122388244,-0.292751818895,-0.955934166908,0.0,0.0,0.0,0.0,0.0,0.0,0.0,0.0,0.0,0.000398303731345,3.17335548061e-06,-0.00145904556848,0.0,0.0,0.0,0.0,0.0,0.0,0.0,0.0,0.0,-0.439429372549,-0.0478676743805,9.87893009186,0.0,0.0,0.0,0.0,0.0,0.0,0.0,0.0,0.0
1745400045145361453,5753,1745400045145198098,gyro_link,0.00904929172248,-0.0201176721603,-0.292751520872,-0.955934166908,0.0,0.0,0.0,0.0,0.0,0.0,0.0,0.0,0.0,0.000930943118874,0.000535794941243,-0.00145700166468,0.0,0.0,0.0,0.0,0.0,0.0,0.0,0.0,0.0,-0.433256536722,-0.0408150032163,9.85981655121,0.0,0.0,0.0,0.0,0.0,0.0,0.0,0.0,0.0
1745400045155332245,5754,1745400045155174755,gyro_link,0.0090494658798,-0.0201192293316,-0.292750686407,-0.955934405327,0.0,0.0,0.0,0.0,0.0,0.0,0.0,0.0,0.0,-0.00138780160341,0.00107515568379,-0.000418639188865,0.0,0.0,0.0,0.0,0.0,0.0,0.0,0.0,0.0,-0.432790011168,-0.0528140515089,9.85312175751,0.0,0.0,0.0,0.0,0.0,0.0,0.0,0.0,0.0
1745400045166759211,5755,1745400045166605231,gyro_link,0.00904839672148,-0.0201208833605,-0.292751222849,-0.955934107304,0.0,0.0,0.0,0.0,0.0,0.0,0.0,0.0,0.0,0.000382099358831,0.000545904156752,0.000135367212351,0.0,0.0,0.0,0.0,0.0,0.0,0.0,0.0,0.0,-0.432098388672,-0.0551397278905,9.86350631714,0.0,0.0,0.0,0.0,0.0,0.0,0.0,0.0,0.0
1745400045175217552,5756,1745400045175101993,gyro_link,0.00904312450439,-0.0201221425086,-0.292750805616,-0.955934286118,0.0,0.0,0.0,0.0,0.0,0.0,0.0,0.0,0.0,-0.0012048544595,0.0010717860423,-0.000949428940658,0.0,0.0,0.0,0.0,0.0,0.0,0.0,0.0,0.0,-0.433185130358,-0.0635771304369,9.85278701782,0.0,0.0,0.0,0.0,0.0,0.0,0.0,0.0,0.0
1745400045185664191,5757,1745400045185258479,gyro_link,0.00904014147818,-0.0201211627573,-0.29275521636,-0.955932974815,0.0,0.0,0.0,0.0,0.0,0.0,0.0,0.0,0.0,0.000403716578148,-1.96385144591e-07,-0.00199163891375,0.0,0.0,0.0,0.0,0.0,0.0,0.0,0.0,0.0,-0.434538424015,-0.0598919503391,9.86829471588,0.0,0.0,0.0,0.0,0.0,0.0,0.0,0.0,0.0
1745400045195284310,5758,1745400045195140580,gyro_link,0.00904270075262,-0.0201187189668,-0.292760789394,-0.955931305885,0.0,0.0,0.0,0.0,0.0,0.0,0.0,0.0,0.0,-0.00121581729036,-0.00105196074583,0.000129237028887,0.0,0.0,0.0,0.0,0.0,0.0,0.0,0.0,0.0,-0.424961447716,-0.0575082786381,9.86718082428,0.0,0.0,0.0,0.0,0.0,0.0,0.0,0.0,0.0
1745400045205362846,5759,1745400045205194668,gyro_link,0.00904279388487,-0.0201144218445,-0.292758285999,-0.955932080746,0.0,0.0,0.0,0.0,0.0,0.0,0.0,0.0,0.0,-0.000155987188919,-0.00051596929552,0.000669287517667,0.0,0.0,0.0,0.0,0.0,0.0,0.0,0.0,0.0,-0.425252974033,-0.0549354851246,9.89585971832,0.0,0.0,0.0,0.0,0.0,0.0,0.0,0.0,0.0
1745400045215482318,5760,1745400045215239171,gyro_link,0.00904549099505,-0.0201199892908,-0.292757362127,-0.955932319164,0.0,0.0,0.0,0.0,0.0,0.0,0.0,0.0,0.0,-0.00121026718989,0.00107515568379,-0.000416835333453,0.0,0.0,0.0,0.0,0.0,0.0,0.0,0.0,0.0,-0.433426946402,-0.0454915836453,9.87658500671,0.0,0.0,0.0,0.0,0.0,0.0,0.0,0.0,0.0
1745400045225580712,5761,1745400045225273639,gyro_link,0.00904654059559,-0.0201205220073,-0.292758673429,-0.955931901932,0.0,0.0,0.0,0.0,0.0,0.0,0.0,0.0,0.0,0.000382065132726,1.32825844048e-05,0.000138736781082,0.0,0.0,0.0,0.0,0.0,0.0,0.0,0.0,0.0,-0.430842369795,-0.059960026294,9.85757160187,0.0,0.0,0.0,0.0,0.0,0.0,0.0,0.0,0.0
1745400045235870749,5762,1745400045235507817,gyro_link,0.00904465373605,-0.020121537149,-0.292755752802,-0.955932796001,0.0,0.0,0.0,0.0,0.0,0.0,0.0,0.0,0.0,-0.00172666809522,0.000532425183337,-0.00201666052453,0.0,0.0,0.0,0.0,0.0,0.0,0.0,0.0,0.0,-0.439284682274,-0.0658927112818,9.86469745636,0.0,0.0,0.0,0.0,0.0,0.0,0.0,0.0,0.0
1745400045247434141,5763,1745400045245618693,gyro_link,0.00904519949108,-0.020123148337,-0.29275611043,-0.955932617188,0.0,0.0,0.0,0.0,0.0,0.0,0.0,0.0,0.0,-0.00119409733452,-1.96385144591e-07,-0.00200787791982,0.0,0.0,0.0,0.0,0.0,0.0,0.0,0.0,0.0,-0.430011630058,-0.0645155608654,9.8934803009,0.0,0.0,0.0,0.0,0.0,0.0,0.0,0.0,0.0
1745400045261879806,5764,1745400045258316121,gyro_link,0.00904021970928,-0.0201234389096,-0.292754888535,-0.95593303442,0.0,0.0,0.0,0.0,0.0,0.0,0.0,0.0,0.0,0.000387512263842,0.000542534457054,-0.000397226860514,0.0,0.0,0.0,0.0,0.0,0.0,0.0,0.0,0.0,-0.442894399166,-0.0455521009862,9.86692333221,0.0,0.0,0.0,0.0,0.0,0.0,0.0,0.0,0.0
1745400045266257647,5765,1745400045266108298,gyro_link,0.00904301833361,-0.0201271381229,-0.292750597,-0.955934226513,0.0,0.0,0.0,0.0,0.0,0.0,0.0,0.0,0.0,-0.000661526224576,-0.000532817968633,-0.00199909531511,0.0,0.0,0.0,0.0,0.0,0.0,0.0,0.0,0.0,-0.433452039957,-0.0574326142669,9.87905216217,0.0,0.0,0.0,0.0,0.0,0.0,0.0,0.0,0.0
1745400045275617080,5766,1745400045275370842,gyro_link,0.00904199294746,-0.0201221629977,-0.292747914791,-0.955935180187,0.0,0.0,0.0,0.0,0.0,0.0,0.0,0.0,0.0,0.000382202095352,0.0021437688265,0.000125258506159,0.0,0.0,0.0,0.0,0.0,0.0,0.0,0.0,0.0,-0.427413374186,-0.0562748350203,9.87312889099,0.0,0.0,0.0,0.0,0.0,0.0,0.0,0.0,0.0
1745400045285956627,5767,1745400045285405486,gyro_link,0.00904417596757,-0.0201245248318,-0.29275098443,-0.955934166908,0.0,0.0,0.0,0.0,0.0,0.0,0.0,0.0,0.0,-0.000677593576256,0.00214039906859,-0.000418161507696,0.0,0.0,0.0,0.0,0.0,0.0,0.0,0.0,0.0,-0.424924880266,-0.0551397278905,9.86357975006,0.0,0.0,0.0,0.0,0.0,0.0,0.0,0.0,0.0
1745400045295795331,5768,1745400045295360484,gyro_link,0.00904331263155,-0.0201213937253,-0.292752206326,-0.95593392849,0.0,0.0,0.0,0.0,0.0,0.0,0.0,0.0,0.0,-0.001215645927,0.00161114707589,0.000112389185233,0.0,0.0,0.0,0.0,0.0,0.0,0.0,0.0,0.0,-0.422546237707,-0.0611102543771,9.86483764648,0.0,0.0,0.0,0.0,0.0,0.0,0.0,0.0,0.0
1745400045309278751,5769,1745400045308087822,gyro_link,0.00904775597155,-0.0201199315488,-0.292752504349,-0.95593380928,0.0,0.0,0.0,0.0,0.0,0.0,0.0,0.0,0.0,-0.000145092999446,0.000542534457054,-0.000402639823733,0.0,0.0,0.0,0.0,0.0,0.0,0.0,0.0,0.0,-0.43805077672,-0.0372205749154,9.86094093323,0.0,0.0,0.0,0.0,0.0,0.0,0.0,0.0,0.0
1745400045317121688,5770,1745400045316973610,gyro_link,0.00904858205467,-0.0201201010495,-0.292751759291,-0.955933988094,0.0,0.0,0.0,0.0,0.0,0.0,0.0,0.0,0.0,-0.000672249298077,0.0010717860423,-0.000944015977439,0.0,0.0,0.0,0.0,0.0,0.0,0.0,0.0,0.0,-0.426278233528,-0.0514545217156,9.87908649445,0.0,0.0,0.0,0.0,0.0,0.0,0.0,0.0,0.0
1745400045326629076,5771,1745400045326399988,gyro_link,0.0090483436361,-0.0201199129224,-0.292751938105,-0.95593392849,0.0,0.0,0.0,0.0,0.0,0.0,0.0,0.0,0.0,-0.00174287240952,0.00107515568379,-0.000422248296672,0.0,0.0,0.0,0.0,0.0,0.0,0.0,0.0,0.0,-0.422618895769,-0.0574780143797,9.87198925018,0.0,0.0,0.0,0.0,0.0,0.0,0.0,0.0,0.0
1745400045335250416,5772,1745400045335131378,gyro_link,0.00904963072389,-0.0201199315488,-0.292754560709,-0.955933094025,0.0,0.0,0.0,0.0,0.0,0.0,0.0,0.0,0.0,-0.00226471852511,3.17335548061e-06,-0.00148611038458,0.0,0.0,0.0,0.0,0.0,0.0,0.0,0.0,0.0,-0.420166671276,-0.0527333728969,9.86600399017,0.0,0.0,0.0,0.0,0.0,0.0,0.0,0.0,0.0
1745400045345314707,5773,1745400045345155229,gyro_link,0.00905338022858,-0.0201209299266,-0.292757481337,-0.955932199955,0.0,0.0,0.0,0.0,0.0,0.0,0.0,0.0,0.0,-0.00067773059709,9.91284105112e-06,-0.000404683232773,0.0,0.0,0.0,0.0,0.0,0.0,0.0,0.0,0.0,-0.416666388512,-0.0742015391588,9.87454605103,0.0,0.0,0.0,0.0,0.0,0.0,0.0,0.0,0.0
1745400045355674146,5774,1745400045355381487,gyro_link,0.00904658995569,-0.0201223101467,-0.292755365372,-0.955932915211,0.0,0.0,0.0,0.0,0.0,0.0,0.0,0.0,0.0,-0.000677627918776,0.0016077774344,-0.000414791924413,0.0,0.0,0.0,0.0,0.0,0.0,0.0,0.0,0.0,-0.424058586359,-0.0728697627783,9.89598560333,0.0,0.0,0.0,0.0,0.0,0.0,0.0,0.0,0.0
1745400045365486384,5775,1745400045365218672,gyro_link,0.00904390215874,-0.0201200749725,-0.292759209871,-0.955931723118,0.0,0.0,0.0,0.0,0.0,0.0,0.0,0.0,0.0,0.000392925110646,0.000539164640941,-0.000929820467718,0.0,0.0,0.0,0.0,0.0,0.0,0.0,0.0,0.0,-0.42505800724,-0.0466871969402,9.87667751312,0.0,0.0,0.0,0.0,0.0,0.0,0.0,0.0,0.0
1745400045375509438,5776,1745400045375269583,gyro_link,0.0090376092121,-0.0201145429164,-0.292756855488,-0.955932617188,0.0,0.0,0.0,0.0,0.0,0.0,0.0,0.0,0.0,0.000920151651371,0.00107515568379,-0.000395183451474,0.0,0.0,0.0,0.0,0.0,0.0,0.0,0.0,0.0,-0.434610724449,-0.0502816103399,9.87540721893,0.0,0.0,0.0,0.0,0.0,0.0,0.0,0.0,0.0
1745400045385618598,5777,1745400045385341071,gyro_link,0.00903568603098,-0.0201143603772,-0.292755186558,-0.955933213234,0.0,0.0,0.0,0.0,0.0,0.0,0.0,0.0,0.0,-0.000677696370985,0.000542534457054,-0.000408052786952,0.0,0.0,0.0,0.0,0.0,0.0,0.0,0.0,0.0,-0.438293963671,-0.0394605249166,9.88486671448,0.0,0.0,0.0,0.0,0.0,0.0,0.0,0.0,0.0
1745400045395461678,5778,1745400045395203434,gyro_link,0.00903475750238,-0.020114807412,-0.292763113976,-0.955930829048,0.0,0.0,0.0,0.0,0.0,0.0,0.0,0.0,0.0,0.00037134217564,0.00161788670812,0.00119381665718,0.0,0.0,0.0,0.0,0.0,0.0,0.0,0.0,0.0,-0.422787815332,-0.0382422097027,9.8886051178,0.0,0.0,0.0,0.0,0.0,0.0,0.0,0.0,0.0
1745400045405610836,5779,1745400045405324620,gyro_link,0.00903533026576,-0.0201121997088,-0.292765974998,-0.955929934978,0.0,0.0,0.0,0.0,0.0,0.0,0.0,0.0,0.0,-0.000661423546262,0.00106504652649,-0.00200920412317,0.0,0.0,0.0,0.0,0.0,0.0,0.0,0.0,0.0,-0.439382314682,-0.0718103200197,9.87429904938,0.0,0.0,0.0,0.0,0.0,0.0,0.0,0.0,0.0
1745400045415551360,5780,1745400045415313019,gyro_link,0.00903410091996,-0.0201122369617,-0.292768329382,-0.955929279327,0.0,0.0,0.0,0.0,0.0,0.0,0.0,0.0,0.0,-0.00119416578673,-0.00106543966103,-0.00200113886967,0.0,0.0,0.0,0.0,0.0,0.0,0.0,0.0,0.0,-0.431278824806,-0.0453402996063,9.90052032471,0.0,0.0,0.0,0.0,0.0,0.0,0.0,0.0,0.0
1745400045428684405,5781,1745400045425435119,gyro_link,0.00903537124395,-0.020111206919,-0.292765825987,-0.955929994583,0.0,0.0,0.0,0.0,0.0,0.0,0.0,0.0,0.0,0.000936424476095,0.00159766816068,-0.00199633464217,0.0,0.0,0.0,0.0,0.0,0.0,0.0,0.0,0.0,-0.424973726273,-0.0586963258684,9.86838436127,0.0,0.0,0.0,0.0,0.0,0.0,0.0,0.0,0.0
1745400045437629259,5782,1745400045436979235,gyro_link,0.00903875846416,-0.0201094411314,-0.292756944895,-0.955932736397,0.0,0.0,0.0,0.0,0.0,0.0,0.0,0.0,0.0,-0.000666904903483,3.1733582091e-06,-0.00146987102926,0.0,0.0,0.0,0.0,0.0,0.0,0.0,0.0,0.0,-0.433391392231,-0.05866606161,9.87308311462,0.0,0.0,0.0,0.0,0.0,0.0,0.0,0.0,0.0
1745400045445528608,5783,1745400045445374843,gyro_link,0.00904264114797,-0.020115736872,-0.292750537395,-0.955934584141,0.0,0.0,0.0,0.0,0.0,0.0,0.0,0.0,0.0,-0.000139577416121,0.00213702931069,-0.000945342180785,0.0,0.0,0.0,0.0,0.0,0.0,0.0,0.0,0.0,-0.437954753637,-0.05521536991,9.85149002075,0.0,0.0,0.0,0.0,0.0,0.0,0.0,0.0,0.0
1745400045455497110,5784,1745400045455277068,gyro_link,0.00903953798115,-0.0201137661934,-0.292750418186,-0.955934584141,0.0,0.0,0.0,0.0,0.0,0.0,0.0,0.0,0.0,-0.00121023296379,0.0016077774344,-0.000420204887632,0.0,0.0,0.0,0.0,0.0,0.0,0.0,0.0,0.0,-0.427388459444,-0.0467250160873,9.87067604065,0.0,0.0,0.0,0.0,0.0,0.0,0.0,0.0,0.0
1745400045487786137,5785,1745400045482292939,gyro_link,0.00903586763889,-0.0201174188405,-0.292747110128,-0.955935657024,0.0,0.0,0.0,0.0,0.0,0.0,0.0,0.0,0.0,-0.00174821692053,0.0021437688265,0.000103606653283,0.0,0.0,0.0,0.0,0.0,0.0,0.0,0.0,0.0,-0.436941742897,-0.0598843842745,9.86946678162,0.0,0.0,0.0,0.0,0.0,0.0,0.0,0.0,0.0
1745400045487806278,5786,1745400045485818878,gyro_link,0.00904196314514,-0.0201215725392,-0.292751997709,-0.95593392849,0.0,0.0,0.0,0.0,0.0,0.0,0.0,0.0,0.0,-0.000661423546262,0.00106504652649,-0.00200920412317,0.0,0.0,0.0,0.0,0.0,0.0,0.0,0.0,0.0,-0.421605616808,-0.0573645532131,9.88993453979,0.0,0.0,0.0,0.0,0.0,0.0,0.0,0.0,0.0
1745400045490640812,5787,1745400045488482963,gyro_link,0.00904506444931,-0.0201219189912,-0.292747616768,-0.955935180187,0.0,0.0,0.0,0.0,0.0,0.0,0.0,0.0,0.0,-0.00173214962706,-0.000529448268935,-0.00147732743062,0.0,0.0,0.0,0.0,0.0,0.0,0.0,0.0,0.0,-0.436807245016,-0.0468157865107,9.85623168945,0.0,0.0,0.0,0.0,0.0,0.0,0.0,0.0,0.0
1745400045503391184,5788,1745400045495210989,gyro_link,0.00904848705977,-0.0201170761138,-0.292746663094,-0.955935537815,0.0,0.0,0.0,0.0,0.0,0.0,0.0,0.0,0.0,-0.00119940727018,0.00160103791859,-0.00148539268412,0.0,0.0,0.0,0.0,0.0,0.0,0.0,0.0,0.0,-0.43365842104,-0.0537171624601,9.89935398102,0.0,0.0,0.0,0.0,0.0,0.0,0.0,0.0,0.0
1745400045513282942,5789,1745400045509405673,gyro_link,0.00905057787895,-0.0201177615672,-0.292743265629,-0.955936610699,0.0,0.0,0.0,0.0,0.0,0.0,0.0,0.0,0.0,-0.000145127254655,9.91284105112e-06,-0.000399270269554,0.0,0.0,0.0,0.0,0.0,0.0,0.0,0.0,0.0,-0.435757309198,-0.044333782047,9.87057590485,0.0,0.0,0.0,0.0,0.0,0.0,0.0,0.0,0.0
1745400045519597666,5790,1745400045518300904,gyro_link,0.00905276183039,-0.0201197117567,-0.292743861675,-0.95593637228,0.0,0.0,0.0,0.0,0.0,0.0,0.0,0.0,0.0,0.000382167869247,0.00161114707589,0.00012862807489,0.0,0.0,0.0,0.0,0.0,0.0,0.0,0.0,0.0,-0.433319032192,-0.0670807734132,9.8659620285,0.0,0.0,0.0,0.0,0.0,0.0,0.0,0.0,0.0
1745400045527274693,5791,1745400045527040643,gyro_link,0.00905490480363,-0.0201229825616,-0.292745769024,-0.955935657024,0.0,0.0,0.0,0.0,0.0,0.0,0.0,0.0,0.0,-0.00174825114664,0.00161114707589,0.000106976222014,0.0,0.0,0.0,0.0,0.0,0.0,0.0,0.0,0.0,-0.429549008608,-0.0504555888474,9.84795856476,0.0,0.0,0.0,0.0,0.0,0.0,0.0,0.0,0.0
1745400045540094915,5792,1745400045539484435,gyro_link,0.00905488990247,-0.020116738975,-0.292747139931,-0.955935418606,0.0,0.0,0.0,0.0,0.0,0.0,0.0,0.0,0.0,-0.000134164540214,0.00213365978561,-0.00147793628275,0.0,0.0,0.0,0.0,0.0,0.0,0.0,0.0,0.0,-0.435806661844,-0.0562597028911,9.87543296814,0.0,0.0,0.0,0.0,0.0,0.0,0.0,0.0,0.0
1745400045545437260,5793,1745400045545246980,gyro_link,0.00905443541706,-0.0201183855534,-0.292744636536,-0.955936193466,0.0,0.0,0.0,0.0,0.0,0.0,0.0,0.0,0.0,-0.000666802225169,0.00160103791859,-0.0014799797209,0.0,0.0,0.0,0.0,0.0,0.0,0.0,0.0,0.0,-0.426193356514,-0.0538987182081,9.87073421478,0.0,0.0,0.0,0.0,0.0,0.0,0.0,0.0,0.0
1745400045555332408,5794,1745400045555236236,gyro_link,0.00905277393758,-0.0201174095273,-0.292741835117,-0.955937027931,0.0,0.0,0.0,0.0,0.0,0.0,0.0,0.0,0.0,-0.00117789302021,-0.00054292724235,-0.00360229075886,0.0,0.0,0.0,0.0,0.0,0.0,0.0,0.0,0.0,-0.425156116486,-0.0609740912914,9.8863325119,0.0,0.0,0.0,0.0,0.0,0.0,0.0,0.0,0.0
1745400045565387462,5795,1745400045565217823,gyro_link,0.00905515439808,-0.0201150812209,-0.292752891779,-0.955933749676,0.0,0.0,0.0,0.0,0.0,0.0,0.0,0.0,0.0,-0.000683143443894,1.32825844048e-05,0.000127910869196,0.0,0.0,0.0,0.0,0.0,0.0,0.0,0.0,0.0,-0.428560078144,-0.0527182258666,9.86830997467,0.0,0.0,0.0,0.0,0.0,0.0,0.0,0.0,0.0
1745400045578630637,5796,1745400045576682953,gyro_link,0.00905174855143,-0.0201110411435,-0.292752534151,-0.95593392849,0.0,0.0,0.0,0.0,0.0,0.0,0.0,0.0,0.0,0.000920117425267,0.000542534457054,-0.000391813897295,0.0,0.0,0.0,0.0,0.0,0.0,0.0,0.0,0.0,-0.430988162756,-0.0598692521453,9.87191772461,0.0,0.0,0.0,0.0,0.0,0.0,0.0,0.0,0.0
1745400045586048095,5797,1745400045585762219,gyro_link,0.00905417371541,-0.0201116222888,-0.29275098443,-0.955934345722,0.0,0.0,0.0,0.0,0.0,0.0,0.0,0.0,0.0,-0.00173752836417,6.54310179016e-06,-0.000948102795519,0.0,0.0,0.0,0.0,0.0,0.0,0.0,0.0,0.0,-0.428511619568,-0.0539440996945,9.86353588104,0.0,0.0,0.0,0.0,0.0,0.0,0.0,0.0,0.0
1745400045595419997,5798,1745400045595275776,gyro_link,0.0090538142249,-0.0201115868986,-0.292749285698,-0.955934822559,0.0,0.0,0.0,0.0,0.0,0.0,0.0,0.0,0.0,-0.000672283524182,0.000539164640941,-0.000940646394156,0.0,0.0,0.0,0.0,0.0,0.0,0.0,0.0,0.0,-0.432121992111,-0.0443640388548,9.86583042145,0.0,0.0,0.0,0.0,0.0,0.0,0.0,0.0,0.0
1745400045605635096,5799,1745400045605325769,gyro_link,0.00905112084001,-0.0201117675751,-0.292746216059,-0.955935895443,0.0,0.0,0.0,0.0,0.0,0.0,0.0,0.0,0.0,-0.0027972899843,0.000535794941243,-0.00149489240721,0.0,0.0,0.0,0.0,0.0,0.0,0.0,0.0,0.0,-0.433354824781,-0.0574931465089,9.86948776245,0.0,0.0,0.0,0.0,0.0,0.0,0.0,0.0,0.0
1745400045615728577,5800,1745400045615334419,gyro_link,0.00904635153711,-0.0201117321849,-0.292749643326,-0.955934762955,0.0,0.0,0.0,0.0,0.0,0.0,0.0,0.0,0.0,-0.000139543160913,0.00266965059564,-0.00094871170586,0.0,0.0,0.0,0.0,0.0,0.0,0.0,0.0,0.0,-0.426290303469,-0.0502513460815,9.88027477264,0.0,0.0,0.0,0.0,0.0,0.0,0.0,0.0,0.0
1745400045625798772,5801,1745400045625427472,gyro_link,0.00904626585543,-0.0201158300042,-0.292742699385,-0.955936849117,0.0,0.0,0.0,0.0,0.0,0.0,0.0,0.0,0.0,-0.00120488868561,0.000539164640941,-0.000946059357375,0.0,0.0,0.0,0.0,0.0,0.0,0.0,0.0,0.0,-0.42736518383,-0.0622831769288,9.86838245392,0.0,0.0,0.0,0.0,0.0,0.0,0.0,0.0,0.0
1745400045635653235,5802,1745400045635337472,gyro_link,0.00904396921396,-0.0201162435114,-0.292742192745,-0.955937087536,0.0,0.0,0.0,0.0,0.0,0.0,0.0,0.0,0.0,-0.000672283524182,0.000539164640941,-0.000940646394156,0.0,0.0,0.0,0.0,0.0,0.0,0.0,0.0,0.0,-0.428609162569,-0.0598616860807,9.87313842773,0.0,0.0,0.0,0.0,0.0,0.0,0.0,0.0,0.0
1745400045647484494,5803,1745400045647080909,gyro_link,0.0090412767604,-0.0201182905585,-0.292742490768,-0.955936968327,0.0,0.0,0.0,0.0,0.0,0.0,0.0,0.0,0.0,-0.00174287240952,0.00107515568379,-0.000422248296672,0.0,0.0,0.0,0.0,0.0,0.0,0.0,0.0,0.0,-0.437147378922,-0.0454083681107,9.88970088959,0.0,0.0,0.0,0.0,0.0,0.0,0.0,0.0,0.0
1745400045658977096,5804,1745400045658786029,gyro_link,0.00904169213027,-0.0201185308397,-0.29273879528,-0.95593804121,0.0,0.0,0.0,0.0,0.0,0.0,0.0,0.0,0.0,-0.000123373087263,0.00159429851919,-0.00253975507803,0.0,0.0,0.0,0.0,0.0,0.0,0.0,0.0,0.0,-0.433281749487,-0.0539516657591,9.86229133606,0.0,0.0,0.0,0.0,0.0,0.0,0.0,0.0,0.0
1745400045665478768,5805,1745400045665365742,gyro_link,0.00904058199376,-0.0201169196516,-0.292737036943,-0.955938637257,0.0,0.0,0.0,0.0,0.0,0.0,0.0,0.0,0.0,-0.000134198795422,0.00160103791859,-0.00147456675768,0.0,0.0,0.0,0.0,0.0,0.0,0.0,0.0,0.0,-0.436893194914,-0.0611102543771,9.86469173431,0.0,0.0,0.0,0.0,0.0,0.0,0.0,0.0,0.0
1745400045675415096,5806,1745400045675260267,gyro_link,0.00903510302305,-0.0201156940311,-0.292736142874,-0.955938994884,0.0,0.0,0.0,0.0,0.0,0.0,0.0,0.0,0.0,-0.000688487838488,0.00108189531602,0.000653765862808,0.0,0.0,0.0,0.0,0.0,0.0,0.0,0.0,0.0,-0.433548957109,-0.0525896213949,9.88858699799,0.0,0.0,0.0,0.0,0.0,0.0,0.0,0.0,0.0
1745400045687177189,5807,1745400045686778816,gyro_link,0.00903483200818,-0.0201193299145,-0.2927275002,-0.95594149828,0.0,0.0,0.0,0.0,0.0,0.0,0.0,0.0,0.0,-0.00067773059709,9.91284105112e-06,-0.000404683232773,0.0,0.0,0.0,0.0,0.0,0.0,0.0,0.0,0.0,-0.433487653732,-0.0442581363022,9.88255500793,0.0,0.0,0.0,0.0,0.0,0.0,0.0,0.0,0.0
1745400045695496174,5808,1745400045695242986,gyro_link,0.00903029832989,-0.020120581612,-0.2927313447,-0.955940425396,0.0,0.0,0.0,0.0,0.0,0.0,0.0,0.0,0.0,-0.000666870677378,0.000535794941243,-0.00147324101999,0.0,0.0,0.0,0.0,0.0,0.0,0.0,0.0,0.0,-0.428815186024,-0.0513637587428,9.89340877533,0.0,0.0,0.0,0.0,0.0,0.0,0.0,0.0,0.0
1745400045705687428,5809,1745400045705312097,gyro_link,0.00903146155179,-0.0201231539249,-0.292729228735,-0.955940961838,0.0,0.0,0.0,0.0,0.0,0.0,0.0,0.0,0.0,-0.000677696370985,0.000542534457054,-0.000408052786952,0.0,0.0,0.0,0.0,0.0,0.0,0.0,0.0,0.0,-0.43202650547,-0.0707281678915,9.85643100739,0.0,0.0,0.0,0.0,0.0,0.0,0.0,0.0,0.0
1745400045715678501,5810,1745400045715391151,gyro_link,0.00903362315148,-0.0201265476644,-0.292724370956,-0.955942392349,0.0,0.0,0.0,0.0,0.0,0.0,0.0,0.0,0.0,0.00039830559399,3.1733582091e-06,-0.00145904510282,0.0,0.0,0.0,0.0,0.0,0.0,0.0,0.0,0.0,-0.426363050938,-0.0478147305548,9.88743305206,0.0,0.0,0.0,0.0,0.0,0.0,0.0,0.0,0.0
1745400045725509953,5811,1745400045725298305,gyro_link,0.00903220567852,-0.0201297681779,-0.292722016573,-0.955943107605,0.0,0.0,0.0,0.0,0.0,0.0,0.0,0.0,0.0,-0.000683074991684,0.0010785254417,0.000121171731735,0.0,0.0,0.0,0.0,0.0,0.0,0.0,0.0,0.0,-0.434514731169,-0.0694720000029,9.86596488953,0.0,0.0,0.0,0.0,0.0,0.0,0.0,0.0,0.0
1745400045735622609,5812,1745400045735300528,gyro_link,0.00903196725994,-0.020132292062,-0.292728126049,-0.955941081047,0.0,0.0,0.0,0.0,0.0,0.0,0.0,0.0,0.0,0.000925564498175,0.0010717860423,-0.000927777087782,0.0,0.0,0.0,0.0,0.0,0.0,0.0,0.0,0.0,-0.426132947206,-0.0599146410823,9.86479282379,0.0,0.0,0.0,0.0,0.0,0.0,0.0,0.0,0.0
1745400045745611990,5813,1745400045745363586,gyro_link,0.0090300720185,-0.0201295167208,-0.292729020119,-0.955940961838,0.0,0.0,0.0,0.0,0.0,0.0,0.0,0.0,0.0,-0.00015050584625,0.000545904156752,0.000129954249132,0.0,0.0,0.0,0.0,0.0,0.0,0.0,0.0,0.0,-0.427425533533,-0.0562672764063,9.87432384491,0.0,0.0,0.0,0.0,0.0,0.0,0.0,0.0,0.0
1745400045755468653,5814,1745400045755296333,gyro_link,0.00903003849089,-0.0201289281249,-0.292729556561,-0.955940842628,0.0,0.0,0.0,0.0,0.0,0.0,0.0,0.0,0.0,-0.000666836451273,0.0010684162844,-0.00147661019582,0.0,0.0,0.0,0.0,0.0,0.0,0.0,0.0,0.0,-0.438259005547,-0.0621999613941,9.88142490387,0.0,0.0,0.0,0.0,0.0,0.0,0.0,0.0,0.0
1745400045765430346,5815,1745400045765218952,gyro_link,0.00902554392815,-0.0201298743486,-0.292730629444,-0.955940485001,0.0,0.0,0.0,0.0,0.0,0.0,0.0,0.0,0.0,-0.00118861580268,0.00106167676859,-0.00254721124656,0.0,0.0,0.0,0.0,0.0,0.0,0.0,0.0,0.0,-0.423717170954,-0.0539516657591,9.86238861084,0.0,0.0,0.0,0.0,0.0,0.0,0.0,0.0,0.0
1745400045778869841,5816,1745400045778556964,gyro_link,0.00902700610459,-0.020130533725,-0.292732000351,-0.955940008163,0.0,0.0,0.0,0.0,0.0,0.0,0.0,0.0,0.0,0.000387512263842,0.000542534457054,-0.000397226860514,0.0,0.0,0.0,0.0,0.0,0.0,0.0,0.0,0.0,-0.4249984622,-0.0658548921347,9.87082195282,0.0,0.0,0.0,0.0,0.0,0.0,0.0,0.0,0.0
1745400045786403247,5817,1745400045785876996,gyro_link,0.00902363378555,-0.0201322697103,-0.292729735374,-0.955940663815,0.0,0.0,0.0,0.0,0.0,0.0,0.0,0.0,0.0,-0.000683109217789,0.000545904156752,0.000124541300465,0.0,0.0,0.0,0.0,0.0,0.0,0.0,0.0,0.0,-0.422594547272,-0.0562975183129,9.8695898056,0.0,0.0,0.0,0.0,0.0,0.0,0.0,0.0,0.0
1745400045795254823,5818,1745400045795136864,gyro_link,0.00902242213488,-0.020127851516,-0.292728453875,-0.955941140652,0.0,0.0,0.0,0.0,0.0,0.0,0.0,0.0,0.0,-0.000150437364937,0.00161114707589,0.000123215111671,0.0,0.0,0.0,0.0,0.0,0.0,0.0,0.0,0.0,-0.426120251417,-0.0515528619289,9.86354541779,0.0,0.0,0.0,0.0,0.0,0.0,0.0,0.0,0.0
1745400045805424528,5819,1745400045805204758,gyro_link,0.00902401655912,-0.0201308690012,-0.2927339077,-0.955939412117,0.0,0.0,0.0,0.0,0.0,0.0,0.0,0.0,0.0,-0.00119951018132,3.1733582091e-06,-0.00147528399248,0.0,0.0,0.0,0.0,0.0,0.0,0.0,0.0,0.0,-0.43572100997,-0.0467477142811,9.86700344086,0.0,0.0,0.0,0.0,0.0,0.0,0.0,0.0,0.0
1745400045815802253,5820,1745400045815352785,gyro_link,0.0090245148167,-0.0201299320906,-0.292732983828,-0.95593982935,0.0,0.0,0.0,0.0,0.0,0.0,0.0,0.0,0.0,0.000925633066799,0.00213702931069,-0.000934516196139,0.0,0.0,0.0,0.0,0.0,0.0,0.0,0.0,0.0,-0.444126367569,-0.044333782047,9.87049102783,0.0,0.0,0.0,0.0,0.0,0.0,0.0,0.0,0.0
1745400045828094219,5821,1745400045827653755,gyro_link,0.00901651382446,-0.0201326422393,-0.292732417583,-0.955939948559,0.0,0.0,0.0,0.0,0.0,0.0,0.0,0.0,0.0,-0.000672215071972,0.0016044076765,-0.000947385560721,0.0,0.0,0.0,0.0,0.0,0.0,0.0,0.0,0.0,-0.41296762228,-0.032422978431,9.86355781555,0.0,0.0,0.0,0.0,0.0,0.0,0.0,0.0,0.0
1745400045835750683,5822,1745400045835410293,gyro_link,0.00901461113244,-0.0201323013753,-0.292732894421,-0.95593982935,0.0,0.0,0.0,0.0,0.0,0.0,0.0,0.0,0.0,0.000398406467866,0.00160103791859,-0.00146915379446,0.0,0.0,0.0,0.0,0.0,0.0,0.0,0.0,0.0,-0.435660511255,-0.0503723807633,9.86104869843,0.0,0.0,0.0,0.0,0.0,0.0,0.0,0.0,0.0
1745400045845473733,5823,1745400045845230176,gyro_link,0.00902171619236,-0.0201329439878,-0.292731523514,-0.955940186977,0.0,0.0,0.0,0.0,0.0,0.0,0.0,0.0,0.0,-0.000672249298077,0.0010717860423,-0.000944015977439,0.0,0.0,0.0,0.0,0.0,0.0,0.0,0.0,0.0,-0.426144629717,-0.0527333505452,9.86594390869,0.0,0.0,0.0,0.0,0.0,0.0,0.0,0.0,0.0
1745400045855628161,5824,1745400045855318377,gyro_link,0.00902046263218,-0.0201323963702,-0.292730510235,-0.955940544605,0.0,0.0,0.0,0.0,0.0,0.0,0.0,0.0,0.0,-0.00174828537274,0.0010785254417,0.000110345790745,0.0,0.0,0.0,0.0,0.0,0.0,0.0,0.0,0.0,-0.438076198101,-0.0539441071451,9.86343765259,0.0,0.0,0.0,0.0,0.0,0.0,0.0,0.0,0.0
1745400045865812335,5825,1745400045865393390,gyro_link,0.00901949498802,-0.0201355665922,-0.292725682259,-0.955941855907,0.0,0.0,0.0,0.0,0.0,0.0,0.0,0.0,0.0,0.000392993621062,0.0016044076765,-0.000936559634283,0.0,0.0,0.0,0.0,0.0,0.0,0.0,0.0,0.0,-0.42851048708,-0.0372054427862,9.86343002319,0.0,0.0,0.0,0.0,0.0,0.0,0.0,0.0,0.0
1745400045875597148,5826,1745400045875305487,gyro_link,0.00901697762311,-0.0201351996511,-0.292723357677,-0.955942749977,0.0,0.0,0.0,0.0,0.0,0.0,0.0,0.0,0.0,0.000930943118874,0.000535794941243,-0.00145700166468,0.0,0.0,0.0,0.0,0.0,0.0,0.0,0.0,0.0,-0.44883581996,-0.0443791635334,9.86326885223,0.0,0.0,0.0,0.0,0.0,0.0,0.0,0.0,0.0
1745400045885822506,5827,1745400045885439980,gyro_link,0.00902400258929,-0.0201281458139,-0.292718708515,-0.955944180489,0.0,0.0,0.0,0.0,0.0,0.0,0.0,0.0,0.0,-0.000145024518133,0.0016077774344,-0.000409378961194,0.0,0.0,0.0,0.0,0.0,0.0,0.0,0.0,0.0,-0.428535699844,-0.0515377447009,9.86591053009,0.0,0.0,0.0,0.0,0.0,0.0,0.0,0.0,0.0
1745400045895716728,5828,1745400045895328440,gyro_link,0.00902237184346,-0.0201294776052,-0.292724251747,-0.955942511559,0.0,0.0,0.0,0.0,0.0,0.0,0.0,0.0,0.0,-0.000677764823195,-0.000522708753124,-0.00040131364949,0.0,0.0,0.0,0.0,0.0,0.0,0.0,0.0,0.0,-0.439405232668,-0.05027404055,9.87655448914,0.0,0.0,0.0,0.0,0.0,0.0,0.0,0.0,0.0
1745400045905480111,5829,1745400045905233820,gyro_link,0.00902351364493,-0.020127216354,-0.292719334364,-0.955944001675,0.0,0.0,0.0,0.0,0.0,0.0,0.0,0.0,0.0,-0.000661526224576,-0.000532817968633,-0.00199909531511,0.0,0.0,0.0,0.0,0.0,0.0,0.0,0.0,0.0,-0.423765927553,-0.057508263737,9.86719322205,0.0,0.0,0.0,0.0,0.0,0.0,0.0,0.0,0.0
1745400045915795841,5830,1745400045915336154,gyro_link,0.00901906937361,-0.0201289970428,-0.292716503143,-0.955944895744,0.0,0.0,0.0,0.0,0.0,0.0,0.0,0.0,0.0,-0.0017265654169,0.00213028979488,-0.00202676909976,0.0,0.0,0.0,0.0,0.0,0.0,0.0,0.0,0.0,-0.417703121901,-0.0599524639547,9.85890007019,0.0,0.0,0.0,0.0,0.0,0.0,0.0,0.0,0.0
1745400045931324426,5831,1745400045931010755,gyro_link,0.00902320072055,-0.0201309546828,-0.292719990015,-0.955943763256,0.0,0.0,0.0,0.0,0.0,0.0,0.0,0.0,0.0,-0.00173211540096,3.1733582091e-06,-0.0014806969557,0.0,0.0,0.0,0.0,0.0,0.0,0.0,0.0,0.0,-0.429622322321,-0.0575839094818,9.85517692566,0.0,0.0,0.0,0.0,0.0,0.0,0.0,0.0,0.0
1745400045941177406,5832,1745400045940890931,gyro_link,0.00902237463742,-0.0201352462173,-0.292717784643,-0.955944299698,0.0,0.0,0.0,0.0,0.0,0.0,0.0,0.0,0.0,-0.00139141024556,0.00107740226667,-6.3576924731e-05,0.0,0.0,0.0,0.0,0.0,0.0,0.0,0.0,0.0,-0.421833872795,-0.0550792142749,9.87317657471,0.0,0.0,0.0,0.0,0.0,0.0,0.0,0.0,0.0
1745400045945471750,5833,1745400045945268202,gyro_link,0.00902314018458,-0.0201343744993,-0.292716652155,-0.955944657326,0.0,0.0,0.0,0.0,0.0,0.0,0.0,0.0,0.0,-0.000666767882649,0.00213365978561,-0.00148334924597,0.0,0.0,0.0,0.0,0.0,0.0,0.0,0.0,0.0,-0.429731845856,-0.0599070824683,9.86595153809,0.0,0.0,0.0,0.0,0.0,0.0,0.0,0.0,0.0
1745400045955473258,5834,1745400045955301976,gyro_link,0.00902422238141,-0.0201342366636,-0.292722582817,-0.955942809582,0.0,0.0,0.0,0.0,0.0,0.0,0.0,0.0,0.0,-0.000677627918776,0.0016077774344,-0.000414791924413,0.0,0.0,0.0,0.0,0.0,0.0,0.0,0.0,0.0,-0.428718268871,-0.0562067516148,9.88387393951,0.0,0.0,0.0,0.0,0.0,0.0,0.0,0.0,0.0
1745400045965851805,5835,1745400045965457125,gyro_link,0.009023941122,-0.0201294012368,-0.292725026608,-0.955942213535,0.0,0.0,0.0,0.0,0.0,0.0,0.0,0.0,0.0,-0.00065056362655,0.00159092876129,-0.0030777619686,0.0,0.0,0.0,0.0,0.0,0.0,0.0,0.0,0.0,-0.435685575008,-0.062313426286,9.86351585388,0.0,0.0,0.0,0.0,0.0,0.0,0.0,0.0,0.0
1745400045975723974,5836,1745400045975392594,gyro_link,0.00902278162539,-0.0201308149844,-0.292720526457,-0.955943584442,0.0,0.0,0.0,0.0,0.0,0.0,0.0,0.0,0.0,-0.00122116156854,1.66523277585e-05,0.000655092007946,0.0,0.0,0.0,0.0,0.0,0.0,0.0,0.0,0.0,-0.428378283978,-0.060005415231,9.85042095184,0.0,0.0,0.0,0.0,0.0,0.0,0.0,0.0,0.0
1745400045991670359,5837,1745400045988157622,gyro_link,0.00902275834233,-0.0201280061156,-0.292715579271,-0.955945134163,0.0,0.0,0.0,0.0,0.0,0.0,0.0,0.0,0.0,-0.000661457772367,0.000532425183337,-0.00200583459809,0.0,0.0,0.0,0.0,0.0,0.0,0.0,0.0,0.0,-0.428475797176,-0.06472735852,9.86001682281,0.0,0.0,0.0,0.0,0.0,0.0,0.0,0.0,0.0
1745400046002486640,5838,1745400046002326784,gyro_link,0.00902203563601,-0.0201272182167,-0.292711555958,-0.95594638586,0.0,0.0,0.0,0.0,0.0,0.0,0.0,0.0,0.0,-0.000672215071972,0.0016044076765,-0.000947385560721,0.0,0.0,0.0,0.0,0.0,0.0,0.0,0.0,0.0,-0.438160657883,-0.0455218441784,9.8717546463,0.0,0.0,0.0,0.0,0.0,0.0,0.0,0.0,0.0
1745400046005782177,5839,1745400046005502377,gyro_link,0.00901969522238,-0.020122198388,-0.292711645365,-0.955946564674,0.0,0.0,0.0,0.0,0.0,0.0,0.0,0.0,0.0,-0.00121023296379,0.0016077774344,-0.000420204887632,0.0,0.0,0.0,0.0,0.0,0.0,0.0,0.0,0.0,-0.422812193632,-0.039422698319,9.8910036087,0.0,0.0,0.0,0.0,0.0,0.0,0.0,0.0,0.0
1745400046015368498,5840,1745400046015254433,gyro_link,0.00902046728879,-0.0201237089932,-0.292707800865,-0.955947637558,0.0,0.0,0.0,0.0,0.0,0.0,0.0,0.0,0.0,-0.000672215071972,0.0016044076765,-0.000947385560721,0.0,0.0,0.0,0.0,0.0,0.0,0.0,0.0,0.0,-0.429695785046,-0.0659078359604,9.86240386963,0.0,0.0,0.0,0.0,0.0,0.0,0.0,0.0,0.0
1745400046025811973,5841,1745400046025409172,gyro_link,0.00902554299682,-0.0201249010861,-0.292705118656,-0.955948352814,0.0,0.0,0.0,0.0,0.0,0.0,0.0,0.0,0.0,-0.00280808098614,0.00107515568379,-0.00043307422311,0.0,0.0,0.0,0.0,0.0,0.0,0.0,0.0,0.0,-0.428583800793,-0.0431381464005,9.87064170837,0.0,0.0,0.0,0.0,0.0,0.0,0.0,0.0,0.0
1745400046035502716,5842,1745400046035240675,gyro_link,0.00901786983013,-0.0201266724616,-0.29270067811,-0.955949783325,0.0,0.0,0.0,0.0,0.0,0.0,0.0,0.0,0.0,-0.00227544177324,0.0016077774344,-0.00043103081407,0.0,0.0,0.0,0.0,0.0,0.0,0.0,0.0,0.0,-0.42377910018,-0.073043756187,9.86848735809,0.0,0.0,0.0,0.0,0.0,0.0,0.0,0.0,0.0
1745400046046902654,5843,1745400046046013975,gyro_link,0.00901547726244,-0.0201204754412,-0.292700499296,-0.955950021744,0.0,0.0,0.0,0.0,0.0,0.0,0.0,0.0,0.0,0.00145813566633,0.000539164640941,-0.00091899454128,0.0,0.0,0.0,0.0,0.0,0.0,0.0,0.0,0.0,-0.420190989971,-0.0527182258666,9.86839485168,0.0,0.0,0.0,0.0,0.0,0.0,0.0,0.0,0.0
1745400046056429217,5844,1745400046056224875,gyro_link,0.00901240762323,-0.020125227049,-0.292701125145,-0.955949723721,0.0,0.0,0.0,0.0,0.0,0.0,0.0,0.0,0.0,-0.00227006291971,0.0010717860423,-0.000960254867096,0.0,0.0,0.0,0.0,0.0,0.0,0.0,0.0,0.0,-0.425120145082,-0.0681704878807,9.88279151917,0.0,0.0,0.0,0.0,0.0,0.0,0.0,0.0,0.0
1745400046065388472,5845,1745400046065256254,gyro_link,0.00901166070253,-0.0201278720051,-0.292709589005,-0.955947160721,0.0,0.0,0.0,0.0,0.0,0.0,0.0,0.0,0.0,-0.00121026718989,0.00107515568379,-0.000416835333453,0.0,0.0,0.0,0.0,0.0,0.0,0.0,0.0,0.0,-0.429731041193,-0.0467552728951,9.86586952209,0.0,0.0,0.0,0.0,0.0,0.0,0.0,0.0,0.0
1745400046078194410,5846,1745400046077319511,gyro_link,0.00901422370225,-0.0201250128448,-0.292710870504,-0.955946743488,0.0,0.0,0.0,0.0,0.0,0.0,0.0,0.0,0.0,-0.000145058744238,0.00107515568379,-0.000406009407016,0.0,0.0,0.0,0.0,0.0,0.0,0.0,0.0,0.0,-0.432232350111,-0.0598389916122,9.87668800354,0.0,0.0,0.0,0.0,0.0,0.0,0.0,0.0,0.0
1745400046086550133,5847,1745400046086380511,gyro_link,0.00901610963047,-0.0201227590442,-0.292710453272,-0.955946862698,0.0,0.0,0.0,0.0,0.0,0.0,0.0,0.0,0.0,-0.000666836451273,0.0010684162844,-0.00147661019582,0.0,0.0,0.0,0.0,0.0,0.0,0.0,0.0,0.0,-0.417556792498,-0.0516738928854,9.84450149536,0.0,0.0,0.0,0.0,0.0,0.0,0.0,0.0,0.0
1745400046095255722,5848,1745400046095131331,gyro_link,0.0090223159641,-0.0201230812818,-0.292716473341,-0.955944895744,0.0,0.0,0.0,0.0,0.0,0.0,0.0,0.0,0.0,-0.00067773059709,9.91284105112e-06,-0.000404683232773,0.0,0.0,0.0,0.0,0.0,0.0,0.0,0.0,0.0,-0.433257251978,-0.0515755601227,9.85988521576,0.0,0.0,0.0,0.0,0.0,0.0,0.0,0.0,0.0
1745400046105255764,5849,1745400046105132150,gyro_link,0.00901839975268,-0.0201204381883,-0.29272121191,-0.955943584442,0.0,0.0,0.0,0.0,0.0,0.0,0.0,0.0,0.0,-0.000128820174723,0.00106504652649,-0.00200379104353,0.0,0.0,0.0,0.0,0.0,0.0,0.0,0.0,0.0,-0.427449434996,-0.05027404055,9.87667655945,0.0,0.0,0.0,0.0,0.0,0.0,0.0,0.0,0.0
1745400046115355644,5850,1745400046115250033,gyro_link,0.00901877321303,-0.0201216861606,-0.292717039585,-0.95594483614,0.0,0.0,0.0,0.0,0.0,0.0,0.0,0.0,0.0,0.000392993621062,0.0016044076765,-0.000936559634283,0.0,0.0,0.0,0.0,0.0,0.0,0.0,0.0,0.0,-0.431097477674,-0.058605555445,9.88267040253,0.0,0.0,0.0,0.0,0.0,0.0,0.0,0.0,0.0
1745400046125394531,5851,1745400046125198001,gyro_link,0.00901866611093,-0.0201229527593,-0.292715758085,-0.955945134163,0.0,0.0,0.0,0.0,0.0,0.0,0.0,0.0,0.0,-0.00068300642306,0.0021437688265,0.000114432594273,0.0,0.0,0.0,0.0,0.0,0.0,0.0,0.0,0.0,-0.432291805744,-0.0394756495953,9.88253688812,0.0,0.0,0.0,0.0,0.0,0.0,0.0,0.0,0.0
1745400046135397015,5852,1745400046135285648,gyro_link,0.00902112387121,-0.0201195515692,-0.29271286726,-0.955946266651,0.0,0.0,0.0,0.0,0.0,0.0,0.0,0.0,0.0,-0.000677662144881,0.00107515568379,-0.000411422341131,0.0,0.0,0.0,0.0,0.0,0.0,0.0,0.0,0.0,-0.42759552598,-0.0537701062858,9.89104557037,0.0,0.0,0.0,0.0,0.0,0.0,0.0,0.0,0.0
1745400046145263620,5853,1745400046145122057,gyro_link,0.0090216062963,-0.0201222356409,-0.292715460062,-0.955945312977,0.0,0.0,0.0,0.0,0.0,0.0,0.0,0.0,0.0,-0.00174283818342,0.0016077774344,-0.000425617850851,0.0,0.0,0.0,0.0,0.0,0.0,0.0,0.0,0.0,-0.430950701237,-0.0443489141762,9.86823272705,0.0,0.0,0.0,0.0,0.0,0.0,0.0,0.0,0.0
1745400046155306788,5854,1745400046155156546,gyro_link,0.00902435649186,-0.0201168265194,-0.292715251446,-0.955945491791,0.0,0.0,0.0,0.0,0.0,0.0,0.0,0.0,0.0,-0.00138784747105,0.000364994164556,-0.000414146430558,0.0,0.0,0.0,0.0,0.0,0.0,0.0,0.0,0.0,-0.431373625994,-0.0447323024273,9.87062358856,0.0,0.0,0.0,0.0,0.0,0.0,0.0,0.0,0.0
1745400046165435447,5855,1745400046165294113,gyro_link,0.00902618188411,-0.0201121177524,-0.292713105679,-0.955946207047,0.0,0.0,0.0,0.0,0.0,0.0,0.0,0.0,0.0,-0.000688590516802,-0.00051596929552,0.000663874554448,0.0,0.0,0.0,0.0,0.0,0.0,0.0,0.0,0.0,-0.433512598276,-0.0538079477847,9.8850069046,0.0,0.0,0.0,0.0,0.0,0.0,0.0,0.0,0.0
1745400046175340054,5856,1745400046175198989,gyro_link,0.00902355182916,-0.0201094560325,-0.29270747304,-0.955947995186,0.0,0.0,0.0,0.0,0.0,0.0,0.0,0.0,0.0,-0.00012875169341,0.00213028979488,-0.00201053032652,0.0,0.0,0.0,0.0,0.0,0.0,0.0,0.0,0.0,-0.418017745018,-0.03943028301,9.8898563385,0.0,0.0,0.0,0.0,0.0,0.0,0.0,0.0,0.0
1745400046185211169,5857,1745400046185102990,gyro_link,0.0090244403109,-0.0201105233282,-0.292700558901,-0.955950021744,0.0,0.0,0.0,0.0,0.0,0.0,0.0,0.0,0.0,0.000382101221476,0.000545904156752,0.000135367241455,0.0,0.0,0.0,0.0,0.0,0.0,0.0,0.0,0.0,-0.430011093616,-0.0561462379992,9.89342689514,0.0,0.0,0.0,0.0,0.0,0.0,0.0,0.0,0.0
1745400046226651326,5858,1745400046223217224,gyro_link,0.00902557559311,-0.020110277459,-0.292700558901,-0.955950081348,0.0,0.0,0.0,0.0,0.0,0.0,0.0,0.0,0.0,-0.00174290663563,0.000542534457054,-0.000418878742494,0.0,0.0,0.0,0.0,0.0,0.0,0.0,0.0,0.0,-0.429925680161,-0.0502210967243,9.88502025604,0.0,0.0,0.0,0.0,0.0,0.0,0.0,0.0,0.0
1745400046226673835,5859,1745400046223275979,gyro_link,0.00902911089361,-0.0201112870127,-0.292697250843,-0.955951035023,0.0,0.0,0.0,0.0,0.0,0.0,0.0,0.0,0.0,-0.000666802225169,0.00160103791859,-0.0014799797209,0.0,0.0,0.0,0.0,0.0,0.0,0.0,0.0,0.0,-0.428512215614,-0.0635090470314,9.8635969162,0.0,0.0,0.0,0.0,0.0,0.0,0.0,0.0,0.0
1745400046227404368,5860,1745400046223454091,gyro_link,0.00902734231204,-0.0201085973531,-0.292698264122,-0.955950856209,0.0,0.0,0.0,0.0,0.0,0.0,0.0,0.0,0.0,-0.00173745967913,0.0010717860423,-0.000954841903877,0.0,0.0,0.0,0.0,0.0,0.0,0.0,0.0,0.0,-0.436783879995,-0.061178330332,9.853931427,0.0,0.0,0.0,0.0,0.0,0.0,0.0,0.0,0.0
1745400046228278213,5861,1745400046227713279,gyro_link,0.00902788434178,-0.0201098266989,-0.292699366808,-0.955950438976,0.0,0.0,0.0,0.0,0.0,0.0,0.0,0.0,0.0,-0.000677559350152,0.00267302035354,-0.000421531061875,0.0,0.0,0.0,0.0,0.0,0.0,0.0,0.0,0.0,-0.423729509115,-0.0575309619308,9.86360740662,0.0,0.0,0.0,0.0,0.0,0.0,0.0,0.0,0.0
1745400046238188601,5862,1745400046237804628,gyro_link,0.00902695488185,-0.020106928423,-0.292697757483,-0.955950915813,0.0,0.0,0.0,0.0,0.0,0.0,0.0,0.0,0.0,-0.00172122102231,0.00106167676859,-0.0025526243262,0.0,0.0,0.0,0.0,0.0,0.0,0.0,0.0,0.0,-0.442786067724,-0.0611632019281,9.85626125336,0.0,0.0,0.0,0.0,0.0,0.0,0.0,0.0,0.0
1745400046250404990,5863,1745400046250065120,gyro_link,0.00902986340225,-0.0201071389019,-0.292708039284,-0.955947756767,0.0,0.0,0.0,0.0,0.0,0.0,0.0,0.0,0.0,0.000387512263842,0.000542534457054,-0.000397226860514,0.0,0.0,0.0,0.0,0.0,0.0,0.0,0.0,0.0,-0.42629006505,-0.0466645024717,9.88025283813,0.0,0.0,0.0,0.0,0.0,0.0,0.0,0.0,0.0
1745400046255473248,5864,1745400046255238943,gyro_link,0.00902991648763,-0.0201100986451,-0.292707175016,-0.955947995186,0.0,0.0,0.0,0.0,0.0,0.0,0.0,0.0,0.0,0.000398235220928,-0.00106207001954,-0.00145230593625,0.0,0.0,0.0,0.0,0.0,0.0,0.0,0.0,0.0,-0.426011502743,-0.0611858963966,9.85284519196,0.0,0.0,0.0,0.0,0.0,0.0,0.0,0.0,0.0
1745400046269804924,5865,1745400046269138801,gyro_link,0.00903274770826,-0.0201124846935,-0.292702645063,-0.955949366093,0.0,0.0,0.0,0.0,0.0,0.0,0.0,0.0,0.0,-0.000139680152643,0.000539164640941,-0.000935233430937,0.0,0.0,0.0,0.0,0.0,0.0,0.0,0.0,0.0,-0.424888670444,-0.05874928087,9.86001491547,0.0,0.0,0.0,0.0,0.0,0.0,0.0,0.0,0.0
1745400046275550220,5866,1745400046275253086,gyro_link,0.00903409719467,-0.0201113019139,-0.292703926563,-0.955949008465,0.0,0.0,0.0,0.0,0.0,0.0,0.0,0.0,0.0,-0.00121023296379,0.0016077774344,-0.000420204887632,0.0,0.0,0.0,0.0,0.0,0.0,0.0,0.0,0.0,-0.426143854856,-0.0407771654427,9.86586761475,0.0,0.0,0.0,0.0,0.0,0.0,0.0,0.0,0.0
1745400046285452956,5867,1745400046285333989,gyro_link,0.00903148576617,-0.0201087836176,-0.292704731226,-0.955948829651,0.0,0.0,0.0,0.0,0.0,0.0,0.0,0.0,0.0,-0.000139645897434,0.0010717860423,-0.00093860301422,0.0,0.0,0.0,0.0,0.0,0.0,0.0,0.0,0.0,-0.43213519454,-0.0610951296985,9.86713123322,0.0,0.0,0.0,0.0,0.0,0.0,0.0,0.0,0.0
1745400046299068900,5868,1745400046295382908,gyro_link,0.00903444364667,-0.0201075989753,-0.292699456215,-0.955950379372,0.0,0.0,0.0,0.0,0.0,0.0,0.0,0.0,0.0,-0.00121578306425,-0.000519338995218,0.000125867460156,0.0,0.0,0.0,0.0,0.0,0.0,0.0,0.0,0.0,-0.430951654911,-0.0586963258684,9.86832332611,0.0,0.0,0.0,0.0,0.0,0.0,0.0,0.0,0.0
1745400046310852212,5869,1745400046310344163,gyro_link,0.0090372255072,-0.0201089959592,-0.292699813843,-0.955950200558,0.0,0.0,0.0,0.0,0.0,0.0,0.0,0.0,0.0,-0.000666904903483,3.1733582091e-06,-0.00146987102926,0.0,0.0,0.0,0.0,0.0,0.0,0.0,0.0,0.0,-0.439222961664,-0.0503875128925,9.85862064362,0.0,0.0,0.0,0.0,0.0,0.0,0.0,0.0,0.0
1745400046315580083,5870,1745400046315270281,gyro_link,0.00903839431703,-0.0201060306281,-0.292702436447,-0.955949485302,0.0,0.0,0.0,0.0,0.0,0.0,0.0,0.0,0.0,-0.00121026718989,0.00107515568379,-0.000416835333453,0.0,0.0,0.0,0.0,0.0,0.0,0.0,0.0,0.0,-0.427437871695,-0.0598465614021,9.87554073334,0.0,0.0,0.0,0.0,0.0,0.0,0.0,0.0,0.0
1745400046328909462,5871,1745400046327835287,gyro_link,0.00903977360576,-0.0201006364077,-0.292706221342,-0.955948352814,0.0,0.0,0.0,0.0,0.0,0.0,0.0,0.0,0.0,-0.00174287240952,0.00107515568379,-0.000422248296672,0.0,0.0,0.0,0.0,0.0,0.0,0.0,0.0,0.0,-0.44888523221,-0.0575006976724,9.86813354492,0.0,0.0,0.0,0.0,0.0,0.0,0.0,0.0,0.0
1745400046336669339,5872,1745400046336402831,gyro_link,0.00903902109712,-0.0201017335057,-0.292705118656,-0.955948710442,0.0,0.0,0.0,0.0,0.0,0.0,0.0,0.0,0.0,0.000914773030672,0.00161114707589,0.000134041052661,0.0,0.0,0.0,0.0,0.0,0.0,0.0,0.0,0.0,-0.424937516451,-0.062305867672,9.86482048035,0.0,0.0,0.0,0.0,0.0,0.0,0.0,0.0,0.0
1745400046346704160,5873,1745400046346420259,gyro_link,0.00903828255832,-0.0200993102044,-0.292706549168,-0.955948293209,0.0,0.0,0.0,0.0,0.0,0.0,0.0,0.0,0.0,0.000936424476095,0.00159766816068,-0.00199633464217,0.0,0.0,0.0,0.0,0.0,0.0,0.0,0.0,0.0,-0.424925535917,-0.0659002810717,9.86364746094,0.0,0.0,0.0,0.0,0.0,0.0,0.0,0.0,0.0
1745400046356571005,5874,1745400046356365355,gyro_link,0.00903216283768,-0.0200943313539,-0.292709231377,-0.955947637558,0.0,0.0,0.0,0.0,0.0,0.0,0.0,0.0,0.0,0.000398372183554,0.0010684162844,-0.00146578426939,0.0,0.0,0.0,0.0,0.0,0.0,0.0,0.0,0.0,-0.43334171176,-0.0419576689601,9.8681936264,0.0,0.0,0.0,0.0,0.0,0.0,0.0,0.0,0.0
1745400046366791460,5875,1745400046366480640,gyro_link,0.00903508625925,-0.0200944077224,-0.29271236062,-0.955946683884,0.0,0.0,0.0,0.0,0.0,0.0,0.0,0.0,0.0,0.000398235220928,-0.00106207001954,-0.00145230640192,0.0,0.0,0.0,0.0,0.0,0.0,0.0,0.0,0.0,-0.429961740971,-0.0442203097045,9.88856983185,0.0,0.0,0.0,0.0,0.0,0.0,0.0,0.0,0.0
1745400046376688174,5876,1745400046376449953,gyro_link,0.00903451815248,-0.0200883410871,-0.292713075876,-0.955946683884,0.0,0.0,0.0,0.0,0.0,0.0,0.0,0.0,0.0,-0.0012048544595,0.0010717860423,-0.000949428940658,0.0,0.0,0.0,0.0,0.0,0.0,0.0,0.0,0.0,-0.428487658501,-0.0599373318255,9.86118221283,0.0,0.0,0.0,0.0,0.0,0.0,0.0,0.0,0.0
1745400046388489501,5877,1745400046388275751,gyro_link,0.00903632678092,-0.0200897362083,-0.292713105679,-0.955946624279,0.0,0.0,0.0,0.0,0.0,0.0,0.0,0.0,0.0,0.000398442556616,0.00213365978561,-0.00147252331953,0.0,0.0,0.0,0.0,0.0,0.0,0.0,0.0,0.0,-0.428658127785,-0.0658095106483,9.87795734406,0.0,0.0,0.0,0.0,0.0,0.0,0.0,0.0,0.0
1745400046397188246,5878,1745400046397071949,gyro_link,0.00903558079153,-0.0200908388942,-0.292714565992,-0.955946087837,0.0,0.0,0.0,0.0,0.0,0.0,0.0,0.0,0.0,-0.00175369810313,0.00108189531602,0.000642939878162,0.0,0.0,0.0,0.0,0.0,0.0,0.0,0.0,0.0,-0.438100337982,-0.0515377372503,9.86581420898,0.0,0.0,0.0,0.0,0.0,0.0,0.0,0.0,0.0
1745400046405340774,5879,1745400046405202293,gyro_link,0.00903224386275,-0.0200903303921,-0.292725294828,-0.955942809582,0.0,0.0,0.0,0.0,0.0,0.0,0.0,0.0,0.0,0.000398406467866,0.00160103791859,-0.00146915379446,0.0,0.0,0.0,0.0,0.0,0.0,0.0,0.0,0.0,-0.422473222017,-0.0587644092739,9.85764884949,0.0,0.0,0.0,0.0,0.0,0.0,0.0,0.0,0.0
1745400046415291287,5880,1745400046415143557,gyro_link,0.00903211906552,-0.0200911592692,-0.292724102736,-0.95594316721,0.0,0.0,0.0,0.0,0.0,0.0,0.0,0.0,0.0,0.000936287571676,-0.000532817968633,-0.00198285654187,0.0,0.0,0.0,0.0,0.0,0.0,0.0,0.0,0.0,-0.433087080717,-0.0504858456552,9.84313964844,0.0,0.0,0.0,0.0,0.0,0.0,0.0,0.0,0.0
1745400046425301127,5881,1745400046425139350,gyro_link,0.00902898795903,-0.0200887620449,-0.292726784945,-0.955942392349,0.0,0.0,0.0,0.0,0.0,0.0,0.0,0.0,0.0,0.000914738804568,0.0010785254417,0.000137410621392,0.0,0.0,0.0,0.0,0.0,0.0,0.0,0.0,0.0,-0.429755806923,-0.0539138354361,9.8683052063,0.0,0.0,0.0,0.0,0.0,0.0,0.0,0.0,0.0
1745400046437778392,5882,1745400046435186577,gyro_link,0.00902853906155,-0.0200917180628,-0.292726755142,-0.955942332745,0.0,0.0,0.0,0.0,0.0,0.0,0.0,0.0,0.0,-0.000683109217789,0.000545904156752,0.000124541300465,0.0,0.0,0.0,0.0,0.0,0.0,0.0,0.0,0.0,-0.42602199316,-0.0348747298121,9.85387420654,0.0,0.0,0.0,0.0,0.0,0.0,0.0,0.0,0.0
1745400046446274306,5883,1745400046445446980,gyro_link,0.0090305255726,-0.0200875084847,-0.292725592852,-0.955942809582,0.0,0.0,0.0,0.0,0.0,0.0,0.0,0.0,0.0,-0.00174294109456,9.91284105112e-06,-0.000415509159211,0.0,0.0,0.0,0.0,0.0,0.0,0.0,0.0,0.0,-0.420167714357,-0.0682763680816,9.8661031723,0.0,0.0,0.0,0.0,0.0,0.0,0.0,0.0,0.0
1745400046455592641,5884,1745400046455397185,gyro_link,0.00903386157006,-0.0200889017433,-0.292725324631,-0.955942869186,0.0,0.0,0.0,0.0,0.0,0.0,0.0,0.0,0.0,-0.00067773059709,9.91284105112e-06,-0.000404683232773,0.0,0.0,0.0,0.0,0.0,0.0,0.0,0.0,0.0,-0.42735183239,-0.0443564653397,9.86707401276,0.0,0.0,0.0,0.0,0.0,0.0,0.0,0.0,0.0
1745400046465434713,5885,1745400046465264208,gyro_link,0.00903248041868,-0.0200877636671,-0.292722910643,-0.955943644047,0.0,0.0,0.0,0.0,0.0,0.0,0.0,0.0,0.0,0.000392822374124,-0.00105870026164,-0.000919711776078,0.0,0.0,0.0,0.0,0.0,0.0,0.0,0.0,0.0,-0.421508073807,-0.0514469593763,9.88033103943,0.0,0.0,0.0,0.0,0.0,0.0,0.0,0.0,0.0
1745400046475496456,5886,1745400046475273101,gyro_link,0.00902740750462,-0.0200866889209,-0.292720556259,-0.955944478512,0.0,0.0,0.0,0.0,0.0,0.0,0.0,0.0,0.0,-0.00121030141599,0.000542534457054,-0.000413465750171,0.0,0.0,0.0,0.0,0.0,0.0,0.0,0.0,0.0,-0.441820710897,-0.0502589084208,9.87892150879,0.0,0.0,0.0,0.0,0.0,0.0,0.0,0.0,0.0
1745400046485655527,5887,1745400046485268768,gyro_link,0.00902655068785,-0.0200898759067,-0.292722165585,-0.955943882465,0.0,0.0,0.0,0.0,0.0,0.0,0.0,0.0,0.0,-0.00173749390524,0.000539164640941,-0.000951472320594,0.0,0.0,0.0,0.0,0.0,0.0,0.0,0.0,0.0,-0.435830742121,-0.0526577048004,9.87780094147,0.0,0.0,0.0,0.0,0.0,0.0,0.0,0.0,0.0
1745400046495571360,5888,1745400046495319157,gyro_link,0.00902666058391,-0.0200858097523,-0.292722910643,-0.955943822861,0.0,0.0,0.0,0.0,0.0,0.0,0.0,0.0,0.0,0.000936356023885,0.000532425183337,-0.00198959559202,0.0,0.0,0.0,0.0,0.0,0.0,0.0,0.0,0.0,-0.423619180918,-0.0420560091734,9.85274791718,0.0,0.0,0.0,0.0,0.0,0.0,0.0,0.0,0.0
1745400046505574811,5889,1745400046505291960,gyro_link,0.00902287382632,-0.0200887341052,-0.292731285095,-0.955941081047,0.0,0.0,0.0,0.0,0.0,0.0,0.0,0.0,0.0,-0.00280277105048,-0.000526078452822,-0.000955559138674,0.0,0.0,0.0,0.0,0.0,0.0,0.0,0.0,0.0,-0.426241338253,-0.0454991534352,9.87546253204,0.0,0.0,0.0,0.0,0.0,0.0,0.0,0.0,0.0
1745400046515732858,5890,1745400046515354005,gyro_link,0.00901252124459,-0.0200918149203,-0.292736500502,-0.955939531326,0.0,0.0,0.0,0.0,0.0,0.0,0.0,0.0,0.0,-0.00121568015311,0.0010785254417,0.000115758753964,0.0,0.0,0.0,0.0,0.0,0.0,0.0,0.0,0.0,-0.441930890083,-0.0633426383138,9.88976573944,0.0,0.0,0.0,0.0,0.0,0.0,0.0,0.0,0.0
1745400046525791153,5891,1745400046525345029,gyro_link,0.00901463069022,-0.0200933888555,-0.292736291885,-0.955939590931,0.0,0.0,0.0,0.0,0.0,0.0,0.0,0.0,0.0,-0.00173742545303,0.0016044076765,-0.000958211487159,0.0,0.0,0.0,0.0,0.0,0.0,0.0,0.0,0.0,-0.438124626875,-0.0515226125717,9.8682050705,0.0,0.0,0.0,0.0,0.0,0.0,0.0,0.0,0.0
1745400046535710756,5892,1745400046535407579,gyro_link,0.00901464000344,-0.0200915168971,-0.292737334967,-0.955939352512,0.0,0.0,0.0,0.0,0.0,0.0,0.0,0.0,0.0,0.000920117425267,0.000542534457054,-0.000391813897295,0.0,0.0,0.0,0.0,0.0,0.0,0.0,0.0,0.0,-0.435770392418,-0.0586736276746,9.8718624115,0.0,0.0,0.0,0.0,0.0,0.0,0.0,0.0,0.0
1745400046545620870,5893,1745400046545307620,gyro_link,0.00900898873806,-0.020091176033,-0.292735338211,-0.955940008163,0.0,0.0,0.0,0.0,0.0,0.0,0.0,0.0,0.0,0.000403750804253,0.000532425183337,-0.00199500867166,0.0,0.0,0.0,0.0,0.0,0.0,0.0,0.0,0.0,-0.428755164146,-0.062162142247,9.88749980927,0.0,0.0,0.0,0.0,0.0,0.0,0.0,0.0,0.0
1745400046555405733,5894,1745400046555217109,gyro_link,0.00901307351887,-0.0200904421508,-0.292731851339,-0.955940961838,0.0,0.0,0.0,0.0,0.0,0.0,0.0,0.0,0.0,-0.00173201248981,0.00160103791859,-0.001490806113,0.0,0.0,0.0,0.0,0.0,0.0,0.0,0.0,0.0,-0.429670870304,-0.0563580319285,9.85995197296,0.0,0.0,0.0,0.0,0.0,0.0,0.0,0.0,0.0
1745400046565374797,5895,1745400046565208598,gyro_link,0.00901338923723,-0.0200819522142,-0.29273378849,-0.95594060421,0.0,0.0,0.0,0.0,0.0,0.0,0.0,0.0,0.0,0.000931011571083,0.00160103791859,-0.00146374083124,0.0,0.0,0.0,0.0,0.0,0.0,0.0,0.0,0.0,-0.420203089714,-0.0515150465071,9.86958312988,0.0,0.0,0.0,0.0,0.0,0.0,0.0,0.0,0.0
1745400046575583683,5896,1745400046575319451,gyro_link,0.00901073403656,-0.0200837980956,-0.292736202478,-0.95593982935,0.0,0.0,0.0,0.0,0.0,0.0,0.0,0.0,0.0,0.000398372183554,0.0010684162844,-0.00146578426939,0.0,0.0,0.0,0.0,0.0,0.0,0.0,0.0,0.0,-0.433403372765,-0.0562672764063,9.87426280975,0.0,0.0,0.0,0.0,0.0,0.0,0.0,0.0,0.0
1745400046585397885,5897,1745400046585211662,gyro_link,0.00901065114886,-0.0200819671154,-0.292738765478,-0.955939054489,0.0,0.0,0.0,0.0,0.0,0.0,0.0,0.0,0.0,-0.000672249298077,0.0010717860423,-0.000944015977439,0.0,0.0,0.0,0.0,0.0,0.0,0.0,0.0,0.0,-0.439320057631,-0.0491313710809,9.86817836761,0.0,0.0,0.0,0.0,0.0,0.0,0.0,0.0,0.0
1745400046600514810,5898,1745400046596987370,gyro_link,0.00901500880718,-0.0200852863491,-0.292740553617,-0.955938518047,0.0,0.0,0.0,0.0,0.0,0.0,0.0,0.0,0.0,0.000920117425267,0.000542534457054,-0.000391813897295,0.0,0.0,0.0,0.0,0.0,0.0,0.0,0.0,0.0,-0.433500498533,-0.05501113832,9.8838186264,0.0,0.0,0.0,0.0,0.0,0.0,0.0,0.0,0.0
1745400046607456347,5899,1745400046606346577,gyro_link,0.00901611428708,-0.020083764568,-0.292736947536,-0.955939590931,0.0,0.0,0.0,0.0,0.0,0.0,0.0,0.0,0.0,-0.000128854429931,0.000532425183337,-0.00200042151846,0.0,0.0,0.0,0.0,0.0,0.0,0.0,0.0,0.0,-0.426375955343,-0.0597633458674,9.8887052536,0.0,0.0,0.0,0.0,0.0,0.0,0.0,0.0,0.0
1745400046615447772,5900,1745400046615273161,gyro_link,0.00901221949607,-0.0200858730823,-0.292739033699,-0.95593893528,0.0,0.0,0.0,0.0,0.0,0.0,0.0,0.0,0.0,-0.000666973355692,-0.00106207001954,-0.00146313186269,0.0,0.0,0.0,0.0,0.0,0.0,0.0,0.0,0.0,-0.435855805874,-0.0645987614989,9.8802690506,0.0,0.0,0.0,0.0,0.0,0.0,0.0,0.0,0.0
1745400046626745804,5901,1745400046625394117,gyro_link,0.00901134498417,-0.0200810264796,-0.292738318443,-0.955939352512,0.0,0.0,0.0,0.0,0.0,0.0,0.0,0.0,0.0,-0.000666802225169,0.00160103791859,-0.0014799797209,0.0,0.0,0.0,0.0,0.0,0.0,0.0,0.0,0.0,-0.432159692049,-0.0634712353349,9.86953735352,0.0,0.0,0.0,0.0,0.0,0.0,0.0,0.0,0.0
1745400046635569935,5902,1745400046635297426,gyro_link,0.00901157874614,-0.0200809445232,-0.292739212513,-0.955939054489,0.0,0.0,0.0,0.0,0.0,0.0,0.0,0.0,0.0,-0.00228616478853,0.00321238138713,0.000624048698228,0.0,0.0,0.0,0.0,0.0,0.0,0.0,0.0,0.0,-0.433427959681,-0.0610346123576,9.87668323517,0.0,0.0,0.0,0.0,0.0,0.0,0.0,0.0,0.0
1745400046645743160,5903,1745400046645362412,gyro_link,0.00901603512466,-0.0200734231621,-0.292738348246,-0.955939412117,0.0,0.0,0.0,0.0,0.0,0.0,0.0,0.0,0.0,-0.000128820174723,0.00106504652649,-0.00200379104353,0.0,0.0,0.0,0.0,0.0,0.0,0.0,0.0,0.0,-0.430818289518,-0.0635619983077,9.85520267487,0.0,0.0,0.0,0.0,0.0,0.0,0.0,0.0,0.0
1745400046655706209,5904,1745400046655364505,gyro_link,0.00901321973652,-0.0200737770647,-0.292744249105,-0.955937564373,0.0,0.0,0.0,0.0,0.0,0.0,0.0,0.0,0.0,0.00147440854926,0.00106167676859,-0.00252014654689,0.0,0.0,0.0,0.0,0.0,0.0,0.0,0.0,0.0,-0.440503895283,-0.0551170371473,9.86700820923,0.0,0.0,0.0,0.0,0.0,0.0,0.0,0.0,0.0
1745400046665820006,5905,1745400046665379825,gyro_link,0.00901739113033,-0.0200744811445,-0.292741090059,-0.955938518047,0.0,0.0,0.0,0.0,0.0,0.0,0.0,0.0,0.0,0.000398442556616,0.00213365978561,-0.00147252331953,0.0,0.0,0.0,0.0,0.0,0.0,0.0,0.0,0.0,-0.426253199577,-0.040709104389,9.87662792206,0.0,0.0,0.0,0.0,0.0,0.0,0.0,0.0,0.0
1745400046675983688,5906,1745400046675455353,gyro_link,0.0090176705271,-0.0200791936368,-0.292744874954,-0.955937206745,0.0,0.0,0.0,0.0,0.0,0.0,0.0,0.0,0.0,-0.00121030141599,0.000542534457054,-0.000413465750171,0.0,0.0,0.0,0.0,0.0,0.0,0.0,0.0,0.0,-0.424682229757,-0.0612691007555,9.8397064209,0.0,0.0,0.0,0.0,0.0,0.0,0.0,0.0,0.0
1745400046689500225,5907,1745400046687985767,gyro_link,0.00901733245701,-0.0200820509344,-0.292747020721,-0.955936491489,0.0,0.0,0.0,0.0,0.0,0.0,0.0,0.0,0.0,-0.00121023296379,0.0016077774344,-0.000420204887632,0.0,0.0,0.0,0.0,0.0,0.0,0.0,0.0,0.0,-0.443957448006,-0.0623739436269,9.85386657715,0.0,0.0,0.0,0.0,0.0,0.0,0.0,0.0,0.0
1745400046699018074,5908,1745400046698794850,gyro_link,0.00901891477406,-0.0200817137957,-0.292736679316,-0.95593971014,0.0,0.0,0.0,0.0,0.0,0.0,0.0,0.0,0.0,-0.000128683212097,0.0031955325976,-0.00201726937667,0.0,0.0,0.0,0.0,0.0,0.0,0.0,0.0,0.0,-0.433561742306,-0.0621470175683,9.88984203339,0.0,0.0,0.0,0.0,0.0,0.0,0.0,0.0,0.0
1745400046707700054,5909,1745400046707419844,gyro_link,0.00902288872749,-0.0200825259089,-0.292739927769,-0.955938637257,0.0,0.0,0.0,0.0,0.0,0.0,0.0,0.0,0.0,0.00145810120739,6.54310179016e-06,-0.000915624957997,0.0,0.0,0.0,0.0,0.0,0.0,0.0,0.0,0.0,-0.424924850464,-0.0539440996945,9.86357307434,0.0,0.0,0.0,0.0,0.0,0.0,0.0,0.0,0.0
1745400046715340450,5910,1745400046715242275,gyro_link,0.00902369245887,-0.0200837776065,-0.292739629745,-0.955938637257,0.0,0.0,0.0,0.0,0.0,0.0,0.0,0.0,0.0,-0.0012048202334,0.0016044076765,-0.00095279852394,0.0,0.0,0.0,0.0,0.0,0.0,0.0,0.0,0.0,-0.436807721853,-0.0539894886315,9.85627651215,0.0,0.0,0.0,0.0,0.0,0.0,0.0,0.0,0.0
1745400046725314880,5911,1745400046725170503,gyro_link,0.00902332179248,-0.0200861357152,-0.292739242315,-0.955938696861,0.0,0.0,0.0,0.0,0.0,0.0,0.0,0.0,0.0,-0.000666767882649,0.00213365978561,-0.00148334924597,0.0,0.0,0.0,0.0,0.0,0.0,0.0,0.0,0.0,-0.434465348721,-0.0575460940599,9.86110687256,0.0,0.0,0.0,0.0,0.0,0.0,0.0,0.0,0.0
1745400046735710053,5912,1745400046735367735,gyro_link,0.00902469456196,-0.0200831368566,-0.292739033699,-0.955938816071,0.0,0.0,0.0,0.0,0.0,0.0,0.0,0.0,0.0,-0.000677764823195,-0.000522708753124,-0.00040131364949,0.0,0.0,0.0,0.0,0.0,0.0,0.0,0.0,0.0,-0.421411037445,-0.0538987033069,9.87078285217,0.0,0.0,0.0,0.0,0.0,0.0,0.0,0.0,0.0
1745400046745543030,5913,1745400046745252264,gyro_link,0.00902028661221,-0.0200839191675,-0.292743474245,-0.955937564373,0.0,0.0,0.0,0.0,0.0,0.0,0.0,0.0,0.0,-0.000666767882649,0.00213365978561,-0.00148334924597,0.0,0.0,0.0,0.0,0.0,0.0,0.0,0.0,0.0,-0.413114756346,-0.0526577048004,9.87803268433,0.0,0.0,0.0,0.0,0.0,0.0,0.0,0.0,0.0
1745400046755390729,5914,1745400046755223310,gyro_link,0.0090216724202,-0.0200788043439,-0.292742162943,-0.955937981606,0.0,0.0,0.0,0.0,0.0,0.0,0.0,0.0,0.0,0.000398406467866,0.00160103791859,-0.00146915379446,0.0,0.0,0.0,0.0,0.0,0.0,0.0,0.0,0.0,-0.434368610382,-0.0647803023458,9.85158634186,0.0,0.0,0.0,0.0,0.0,0.0,0.0,0.0,0.0
1745400046765288056,5915,1745400046765144099,gyro_link,0.00902245938778,-0.0200779233128,-0.292745679617,-0.955937027931,0.0,0.0,0.0,0.0,0.0,0.0,0.0,0.0,0.0,0.00093639024999,0.00106504652649,-0.0019929651171,0.0,0.0,0.0,0.0,0.0,0.0,0.0,0.0,0.0,-0.410553663969,-0.0551548525691,9.86133384705,0.0,0.0,0.0,0.0,0.0,0.0,0.0,0.0,0.0
1745400046775481520,5916,1745400046775256514,gyro_link,0.00901889335364,-0.0200785472989,-0.292748183012,-0.955936253071,0.0,0.0,0.0,0.0,0.0,0.0,0.0,0.0,0.0,-0.00067773059709,9.91284105112e-06,-0.000404683232773,0.0,0.0,0.0,0.0,0.0,0.0,0.0,0.0,0.0,-0.439211368561,-0.0587644092739,9.85747909546,0.0,0.0,0.0,0.0,0.0,0.0,0.0,0.0,0.0
1745400046785941772,5917,1745400046785597347,gyro_link,0.00901855621487,-0.020080845803,-0.292746454477,-0.955936670303,0.0,0.0,0.0,0.0,0.0,0.0,0.0,0.0,0.0,-0.000139645897434,0.0010717860423,-0.00093860301422,0.0,0.0,0.0,0.0,0.0,0.0,0.0,0.0,0.0,-0.413113921881,-0.0395059064031,9.87794876099,0.0,0.0,0.0,0.0,0.0,0.0,0.0,0.0,0.0
1745400046795819847,5918,1745400046795562141,gyro_link,0.00902202352881,-0.0200818981975,-0.292747378349,-0.955936431885,0.0,0.0,0.0,0.0,0.0,0.0,0.0,0.0,0.0,-0.000661423546262,0.00106504652649,-0.00200920412317,0.0,0.0,0.0,0.0,0.0,0.0,0.0,0.0,0.0,-0.443920493126,-0.0552229359746,9.850233078,0.0,0.0,0.0,0.0,0.0,0.0,0.0,0.0,0.0
1745400046805534759,5919,1745400046805231428,gyro_link,0.00902089569718,-0.0200830064714,-0.292749226093,-0.955935776234,0.0,0.0,0.0,0.0,0.0,0.0,0.0,0.0,0.0,-0.00228088861331,0.0010785254417,0.000104932834802,0.0,0.0,0.0,0.0,0.0,0.0,0.0,0.0,0.0,-0.428693979979,-0.0562218762934,9.88148403168,0.0,0.0,0.0,0.0,0.0,0.0,0.0,0.0,0.0
1745400046815329383,5920,1745400046815166564,gyro_link,0.00901294033974,-0.0200857389718,-0.29274982214,-0.95593559742,0.0,0.0,0.0,0.0,0.0,0.0,0.0,0.0,0.0,-0.00174825114664,0.00161114707589,0.000106976222014,0.0,0.0,0.0,0.0,0.0,0.0,0.0,0.0,0.0,-0.422680854797,-0.075374469161,9.87807846069,0.0,0.0,0.0,0.0,0.0,0.0,0.0,0.0,0.0
1745400046825655213,5921,1745400046825307590,gyro_link,0.00901900976896,-0.0200876891613,-0.292750328779,-0.955935359001,0.0,0.0,0.0,0.0,0.0,0.0,0.0,0.0,0.0,-0.000139611671329,0.0016044076765,-0.000941972597502,0.0,0.0,0.0,0.0,0.0,0.0,0.0,0.0,0.0,-0.425155699253,-0.0538003779948,9.88628768921,0.0,0.0,0.0,0.0,0.0,0.0,0.0,0.0,0.0
1745400046835461950,5922,1745400046835259304,gyro_link,0.00901900883764,-0.0200877003372,-0.29274892807,-0.955935835838,0.0,0.0,0.0,0.0,0.0,0.0,0.0,0.0,0.0,0.000376652285922,1.66523277585e-05,0.000671330897603,0.0,0.0,0.0,0.0,0.0,0.0,0.0,0.0,0.0,-0.439441800117,-0.0526425875723,9.88015651703,0.0,0.0,0.0,0.0,0.0,0.0,0.0,0.0,0.0
1745400046845274030,5923,1745400046845138217,gyro_link,0.00901825819165,-0.0200944039971,-0.292739808559,-0.955938518047,0.0,0.0,0.0,0.0,0.0,0.0,0.0,0.0,0.0,-0.000688487838488,0.00108189531602,0.000653765862808,0.0,0.0,0.0,0.0,0.0,0.0,0.0,0.0,0.0,-0.433330982924,-0.064681969583,9.86714172363,0.0,0.0,0.0,0.0,0.0,0.0,0.0,0.0,0.0
1745400046855294335,5924,1745400046855164416,gyro_link,0.00902086403221,-0.0200907681137,-0.292740285397,-0.955938339233,0.0,0.0,0.0,0.0,0.0,0.0,0.0,0.0,0.0,-0.000666802225169,0.00160103791859,-0.0014799797209,0.0,0.0,0.0,0.0,0.0,0.0,0.0,0.0,0.0,-0.429694890976,-0.0515604279935,9.86231327057,0.0,0.0,0.0,0.0,0.0,0.0,0.0,0.0,0.0
1745400046865406341,5925,1745400046865176301,gyro_link,0.00902211666107,-0.0200887657702,-0.292738318443,-0.955938994884,0.0,0.0,0.0,0.0,0.0,0.0,0.0,0.0,0.0,-0.00121026718989,0.00107515568379,-0.000416835333453,0.0,0.0,0.0,0.0,0.0,0.0,0.0,0.0,0.0,-0.430793941021,-0.0623815096915,9.85280418396,0.0,0.0,0.0,0.0,0.0,0.0,0.0,0.0,0.0
1745400046875499316,5926,1745400046875312307,gyro_link,0.00902460049838,-0.0200889483094,-0.292735129595,-0.955939948559,0.0,0.0,0.0,0.0,0.0,0.0,0.0,0.0,0.0,-0.000134233021527,0.0010684162844,-0.0014711972326,0.0,0.0,0.0,0.0,0.0,0.0,0.0,0.0,0.0,-0.411883473396,-0.064636580646,9.87453460693,0.0,0.0,0.0,0.0,0.0,0.0,0.0,0.0,0.0
1745400046885575669,5927,1745400046885339279,gyro_link,0.00902465730906,-0.0200893618166,-0.292738229036,-0.955938994884,0.0,0.0,0.0,0.0,0.0,0.0,0.0,0.0,0.0,-0.000139577416121,0.00213702931069,-0.000945342180785,0.0,0.0,0.0,0.0,0.0,0.0,0.0,0.0,0.0,-0.438124150038,-0.0443489141762,9.8681602478,0.0,0.0,0.0,0.0,0.0,0.0,0.0,0.0,0.0
1745400046895576941,5928,1745400046895280408,gyro_link,0.00902321562171,-0.0200917962939,-0.292734712362,-0.955939948559,0.0,0.0,0.0,0.0,0.0,0.0,0.0,0.0,0.0,0.000403786893003,0.00106504652649,-0.00199837819673,0.0,0.0,0.0,0.0,0.0,0.0,0.0,0.0,0.0,-0.424069434404,-0.0525366775692,9.89705276489,0.0,0.0,0.0,0.0,0.0,0.0,0.0,0.0,0.0
1745400046905624206,5929,1745400046905344417,gyro_link,0.00901959743351,-0.0200907383114,-0.292735785246,-0.95593982935,0.0,0.0,0.0,0.0,0.0,0.0,0.0,0.0,0.0,-0.000666836451273,0.0010684162844,-0.00147661019582,0.0,0.0,0.0,0.0,0.0,0.0,0.0,0.0,0.0,-0.444223791361,-0.0478601120412,9.88007736206,0.0,0.0,0.0,0.0,0.0,0.0,0.0,0.0,0.0
1745400046915502650,5930,1745400046915280842,gyro_link,0.00901654642075,-0.0200908593833,-0.292736798525,-0.955939531326,0.0,0.0,0.0,0.0,0.0,0.0,0.0,0.0,0.0,0.000392892747186,6.54310179016e-06,-0.000926450884435,0.0,0.0,0.0,0.0,0.0,0.0,0.0,0.0,0.0,-0.433232784271,-0.0491994544864,9.85747909546,0.0,0.0,0.0,0.0,0.0,0.0,0.0,0.0,0.0
1745400046925550293,5931,1745400046925276635,gyro_link,0.00901316106319,-0.0200952515006,-0.292736798525,-0.955939352512,0.0,0.0,0.0,0.0,0.0,0.0,0.0,0.0,0.0,-0.000666973355692,-0.00106207001954,-0.00146313186269,0.0,0.0,0.0,0.0,0.0,0.0,0.0,0.0,0.0,-0.424985349178,-0.0503194257617,9.86952781677,0.0,0.0,0.0,0.0,0.0,0.0,0.0,0.0,0.0
1745400046935440082,5932,1745400046935223907,gyro_link,0.00900398474187,-0.0200926531106,-0.292743712664,-0.955937445164,0.0,0.0,0.0,0.0,0.0,0.0,0.0,0.0,0.0,-0.00227551022545,0.000542534457054,-0.000424291676609,0.0,0.0,0.0,0.0,0.0,0.0,0.0,0.0,0.0,-0.423644095659,-0.0516058132052,9.85520076752,0.0,0.0,0.0,0.0,0.0,0.0,0.0,0.0,0.0
1745400046945599599,5933,1745400046945324176,gyro_link,0.00900228042156,-0.0200937949121,-0.292747080326,-0.95593637228,0.0,0.0,0.0,0.0,0.0,0.0,0.0,0.0,0.0,-0.0017319440376,0.00266628107056,-0.0014975448139,0.0,0.0,0.0,0.0,0.0,0.0,0.0,0.0,0.0,-0.432220131159,-0.058650944382,9.87548446655,0.0,0.0,0.0,0.0,0.0,0.0,0.0,0.0,0.0
1745400046955628550,5934,1745400046955355814,gyro_link,0.00900487788022,-0.0200957991183,-0.292744964361,-0.955936968327,0.0,0.0,0.0,0.0,0.0,0.0,0.0,0.0,0.0,0.000920185877476,0.0016077774344,-0.000398553034756,0.0,0.0,0.0,0.0,0.0,0.0,0.0,0.0,0.0,-0.429755032063,-0.0419576689601,9.86822986603,0.0,0.0,0.0,0.0,0.0,0.0,0.0,0.0,0.0
1745400046965741335,5935,1745400046965207045,gyro_link,0.00901167560369,-0.0200923383236,-0.292741447687,-0.955938100815,0.0,0.0,0.0,0.0,0.0,0.0,0.0,0.0,0.0,-0.000145058744238,0.00107515568379,-0.000406009407016,0.0,0.0,0.0,0.0,0.0,0.0,0.0,0.0,0.0,-0.420215070248,-0.0491162389517,9.87076473236,0.0,0.0,0.0,0.0,0.0,0.0,0.0,0.0,0.0
1745400046975499173,5936,1745400046975288444,gyro_link,0.00900909304619,-0.0200937055051,-0.292739897966,-0.955938518047,0.0,0.0,0.0,0.0,0.0,0.0,0.0,0.0,0.0,-0.00120492314454,6.54310179016e-06,-0.0009426898323,0.0,0.0,0.0,0.0,0.0,0.0,0.0,0.0,0.0,-0.438124030828,-0.0419576689601,9.86814498901,0.0,0.0,0.0,0.0,0.0,0.0,0.0,0.0,0.0
1745400046985515882,5937,1745400046985215929,gyro_link,0.00901072379202,-0.0200951993465,-0.292739659548,-0.955938518047,0.0,0.0,0.0,0.0,0.0,0.0,0.0,0.0,0.0,-0.00119951018132,3.1733582091e-06,-0.00147528399248,0.0,0.0,0.0,0.0,0.0,0.0,0.0,0.0,0.0,-0.434696137905,-0.0562067516148,9.88381385803,0.0,0.0,0.0,0.0,0.0,0.0,0.0,0.0,0.0
1745400046995482287,5938,1745400046995258633,gyro_link,0.00901441369206,-0.0200946815312,-0.292740225792,-0.955938339233,0.0,0.0,0.0,0.0,0.0,0.0,0.0,0.0,0.0,-0.00068300642306,0.0021437688265,0.000114432594273,0.0,0.0,0.0,0.0,0.0,0.0,0.0,0.0,0.0,-0.431011468172,-0.0443110913038,9.87421131134,0.0,0.0,0.0,0.0,0.0,0.0,0.0,0.0,0.0
1745400047005487128,5939,1745400047005267670,gyro_link,0.00901370402426,-0.0200960710645,-0.292745530605,-0.955936729908,0.0,0.0,0.0,0.0,0.0,0.0,0.0,0.0,0.0,-0.000134233021527,0.0010684162844,-0.0014711972326,0.0,0.0,0.0,0.0,0.0,0.0,0.0,0.0,0.0,-0.438123911619,-0.0407620407641,9.86813735962,0.0,0.0,0.0,0.0,0.0,0.0,0.0,0.0,0.0
1745400047015509877,5940,1745400047015299602,gyro_link,0.00901142787188,-0.0200948808342,-0.292743951082,-0.955937325954,0.0,0.0,0.0,0.0,0.0,0.0,0.0,0.0,0.0,0.000403752666898,0.000532425183337,-0.00199500867166,0.0,0.0,0.0,0.0,0.0,0.0,0.0,0.0,0.0,-0.430793225765,-0.0516209453344,9.85273551941,0.0,0.0,0.0,0.0,0.0,0.0,0.0,0.0,0.0
1745400047025739689,5941,1745400047025310734,gyro_link,0.0090136276558,-0.0200939141214,-0.292737931013,-0.955939114094,0.0,0.0,0.0,0.0,0.0,0.0,0.0,0.0,0.0,-0.000139645897434,0.0010717860423,-0.00093860301422,0.0,0.0,0.0,0.0,0.0,0.0,0.0,0.0,0.0,-0.428512185812,-0.063509054482,9.86359596252,0.0,0.0,0.0,0.0,0.0,0.0,0.0,0.0,0.0
1745400047042267214,5942,1745400047042022323,gyro_link,0.00901144649833,-0.0200913194567,-0.292734026909,-0.955940485001,0.0,0.0,0.0,0.0,0.0,0.0,0.0,0.0,0.0,0.000409197877161,0.00106167676859,-0.00253097247332,0.0,0.0,0.0,0.0,0.0,0.0,0.0,0.0,0.0,-0.427339911461,-0.0479508824646,9.86590099335,0.0,0.0,0.0,0.0,0.0,0.0,0.0,0.0,0.0
1745400047050358001,5943,1745400047047513434,gyro_link,0.00901048257947,-0.0200964454561,-0.292730182409,-0.955941438675,0.0,0.0,0.0,0.0,0.0,0.0,0.0,0.0,0.0,-0.00067773059709,9.91284105112e-06,-0.000404683232773,0.0,0.0,0.0,0.0,0.0,0.0,0.0,0.0,0.0,-0.426083564758,-0.047988705337,9.85993480682,0.0,0.0,0.0,0.0,0.0,0.0,0.0,0.0,0.0
1745400047058799258,5944,1745400047058071790,gyro_link,0.00901697203517,-0.0200965218246,-0.292724877596,-0.955942928791,0.0,0.0,0.0,0.0,0.0,0.0,0.0,0.0,0.0,-0.00173201248981,0.00160103791859,-0.001490806113,0.0,0.0,0.0,0.0,0.0,0.0,0.0,0.0,0.0,-0.420251399279,-0.0467023253441,9.87433624268,0.0,0.0,0.0,0.0,0.0,0.0,0.0,0.0,0.0
1745400047069273334,5945,1745400047069127078,gyro_link,0.00902102328837,-0.02009322308,-0.29272967577,-0.95594149828,0.0,0.0,0.0,0.0,0.0,0.0,0.0,0.0,0.0,-0.00119396019727,0.00213028979488,-0.00202135625295,0.0,0.0,0.0,0.0,0.0,0.0,0.0,0.0,0.0,-0.435794830322,-0.0610497407615,9.8742685318,0.0,0.0,0.0,0.0,0.0,0.0,0.0,0.0,0.0
1745400047075457543,5946,1745400047075247532,gyro_link,0.00902032665908,-0.0200919024646,-0.292725175619,-0.955942988396,0.0,0.0,0.0,0.0,0.0,0.0,0.0,0.0,0.0,-0.00015050584625,0.000545904156752,0.000129954249132,0.0,0.0,0.0,0.0,0.0,0.0,0.0,0.0,0.0,-0.422545582056,-0.0503496825695,9.86476898193,0.0,0.0,0.0,0.0,0.0,0.0,0.0,0.0,0.0
1745400047085529906,5947,1745400047085342923,gyro_link,0.00901509448886,-0.020091874525,-0.292721122503,-0.955944240093,0.0,0.0,0.0,0.0,0.0,0.0,0.0,0.0,0.0,0.000920151651371,0.00107515568379,-0.000395183451474,0.0,0.0,0.0,0.0,0.0,0.0,0.0,0.0,0.0,-0.437100708485,-0.0753290876746,9.88510608673,0.0,0.0,0.0,0.0,0.0,0.0,0.0,0.0,0.0
1745400047095351397,5948,1745400047095207708,gyro_link,0.00900974776596,-0.0200906023383,-0.292724460363,-0.955943346024,0.0,0.0,0.0,0.0,0.0,0.0,0.0,0.0,0.0,-0.00122099020518,0.00267975986935,0.000638244149741,0.0,0.0,0.0,0.0,0.0,0.0,0.0,0.0,0.0,-0.427352309227,-0.0515301786363,9.86711883545,0.0,0.0,0.0,0.0,0.0,0.0,0.0,0.0,0.0
1745400047105718304,5949,1745400047105466855,gyro_link,0.00900924764574,-0.0200858153403,-0.292721509933,-0.955944299698,0.0,0.0,0.0,0.0,0.0,0.0,0.0,0.0,0.0,-0.000145058744238,0.00107515568379,-0.000406009407016,0.0,0.0,0.0,0.0,0.0,0.0,0.0,0.0,0.0,-0.417739361525,-0.0563428997993,9.86246490479,0.0,0.0,0.0,0.0,0.0,0.0,0.0,0.0,0.0
1745400047115560564,5950,1745400047115289018,gyro_link,0.00900269206613,-0.0200879145414,-0.292720228434,-0.95594471693,0.0,0.0,0.0,0.0,0.0,0.0,0.0,0.0,0.0,0.000392890884541,6.54310179016e-06,-0.000926450884435,0.0,0.0,0.0,0.0,0.0,0.0,0.0,0.0,0.0,-0.429938912392,-0.0669521689415,9.88632202148,0.0,0.0,0.0,0.0,0.0,0.0,0.0,0.0,0.0
1745400047125517807,5951,1745400047125255880,gyro_link,0.00900020916015,-0.0200866982341,-0.292717278004,-0.955945670605,0.0,0.0,0.0,0.0,0.0,0.0,0.0,0.0,0.0,-0.0012048544595,0.0010717860423,-0.000949428940658,0.0,0.0,0.0,0.0,0.0,0.0,0.0,0.0,0.0,-0.43118289113,-0.064530685544,9.89107704163,0.0,0.0,0.0,0.0,0.0,0.0,0.0,0.0,0.0
1745400047137276621,5952,1745400047136877326,gyro_link,0.00899983383715,-0.0200854353607,-0.292717635632,-0.955945670605,0.0,0.0,0.0,0.0,0.0,0.0,0.0,0.0,0.0,-0.000134301531943,3.1733582091e-06,-0.00146445806604,0.0,0.0,0.0,0.0,0.0,0.0,0.0,0.0,0.0,-0.426156699657,-0.0515301786363,9.86713123322,0.0,0.0,0.0,0.0,0.0,0.0,0.0,0.0,0.0
1745400047152586317,5953,1745400047150110429,gyro_link,0.00899942405522,-0.0200858395547,-0.292717427015,-0.955945611,0.0,0.0,0.0,0.0,0.0,0.0,0.0,0.0,0.0,3.96928444388e-05,0.00107066275086,-0.00111433013808,0.0,0.0,0.0,0.0,0.0,0.0,0.0,0.0,0.0,-0.413676589727,-0.0480214953423,9.85488033295,0.0,0.0,0.0,0.0,0.0,0.0,0.0,0.0,0.0
1745400047159053920,5954,1745400047158433507,gyro_link,0.00900225434452,-0.0200858134776,-0.292718708515,-0.955945193768,0.0,0.0,0.0,0.0,0.0,0.0,0.0,0.0,0.0,0.00145634287037,0.000717828224879,-0.000742586795241,0.0,0.0,0.0,0.0,0.0,0.0,0.0,0.0,0.0,-0.426769644022,-0.0478097014129,9.88822650909,0.0,0.0,0.0,0.0,0.0,0.0,0.0,0.0,0.0
1745400047165312188,5955,1745400047165205877,gyro_link,0.00900286436081,-0.020087255165,-0.29272082448,-0.955944597721,0.0,0.0,0.0,0.0,0.0,0.0,0.0,0.0,0.0,-0.000134267276735,0.000535794708412,-0.00146782759111,0.0,0.0,0.0,0.0,0.0,0.0,0.0,0.0,0.0,-0.430890917778,-0.0587341487408,9.86234664917,0.0,0.0,0.0,0.0,0.0,0.0,0.0,0.0,0.0
1745400047175666788,5956,1745400047175543452,gyro_link,0.00900347810239,-0.0200863759965,-0.292718470097,-0.955945253372,0.0,0.0,0.0,0.0,0.0,0.0,0.0,0.0,0.0,0.000376686512027,0.000549273914658,0.000667961314321,0.0,0.0,0.0,0.0,0.0,0.0,0.0,0.0,0.0,-0.42368081212,-0.0563655979931,9.85881614685,0.0,0.0,0.0,0.0,0.0,0.0,0.0,0.0,0.0
1745400047185440378,5957,1745400047185201168,gyro_link,0.00900198612362,-0.0200874935836,-0.292713671923,-0.955946743488,0.0,0.0,0.0,0.0,0.0,0.0,0.0,0.0,0.0,-0.000666836451273,0.0010684162844,-0.00147661066148,0.0,0.0,0.0,0.0,0.0,0.0,0.0,0.0,0.0,-0.420445382595,-0.0406031943858,9.89342594147,0.0,0.0,0.0,0.0,0.0,0.0,0.0,0.0,0.0
1745400047195862770,5958,1745400047195426038,gyro_link,0.00900080241263,-0.020090540871,-0.292721271515,-0.955944418907,0.0,0.0,0.0,0.0,0.0,0.0,0.0,0.0,0.0,0.000920083199162,9.91284105112e-06,-0.000388444314012,0.0,0.0,0.0,0.0,0.0,0.0,0.0,0.0,0.0,-0.411652296782,-0.0599978491664,9.85178756714,0.0,0.0,0.0,0.0,0.0,0.0,0.0,0.0,0.0
1745400047205495913,5959,1745400047205231035,gyro_link,0.00899930484593,-0.0200934614986,-0.292722523212,-0.95594394207,0.0,0.0,0.0,0.0,0.0,0.0,0.0,0.0,0.0,-0.00228630169295,0.00108189531602,0.000637526973151,0.0,0.0,0.0,0.0,0.0,0.0,0.0,0.0,0.0,-0.42740085721,-0.0503042936325,9.87189483643,0.0,0.0,0.0,0.0,0.0,0.0,0.0,0.0,0.0
1745400047215694545,5960,1745400047215231978,gyro_link,0.00899980589747,-0.0200913734734,-0.29271838069,-0.955945253372,0.0,0.0,0.0,0.0,0.0,0.0,0.0,0.0,0.0,-0.000134164540214,0.00213365978561,-0.00147793628275,0.0,0.0,0.0,0.0,0.0,0.0,0.0,0.0,0.0,-0.426108360291,-0.0551472865045,9.86237239838,0.0,0.0,0.0,0.0,0.0,0.0,0.0,0.0,0.0
1745400047225569508,5961,1745400047225294740,gyro_link,0.00900329742581,-0.0200955029577,-0.292717844248,-0.955945253372,0.0,0.0,0.0,0.0,0.0,0.0,0.0,0.0,0.0,0.000392890884541,6.54310179016e-06,-0.000926450884435,0.0,0.0,0.0,0.0,0.0,0.0,0.0,0.0,0.0,-0.43924805522,-0.0623285584152,9.86108779907,0.0,0.0,0.0,0.0,0.0,0.0,0.0,0.0,0.0
1745400047235430064,5962,1745400047235225147,gyro_link,0.00900744646788,-0.0200923103839,-0.292715162039,-0.955946147442,0.0,0.0,0.0,0.0,0.0,0.0,0.0,0.0,0.0,-0.000145058744238,0.00107515568379,-0.000406009407016,0.0,0.0,0.0,0.0,0.0,0.0,0.0,0.0,0.0,-0.420008897781,-0.0552229359746,9.85047626495,0.0,0.0,0.0,0.0,0.0,0.0,0.0,0.0,0.0
1745400047245502360,5963,1745400047245254243,gyro_link,0.0090108923614,-0.0200907699764,-0.292712748051,-0.955946922302,0.0,0.0,0.0,0.0,0.0,0.0,0.0,0.0,0.0,-0.00280818389729,-0.000522708753124,-0.000422965502366,0.0,0.0,0.0,0.0,0.0,0.0,0.0,0.0,0.0,-0.417970091105,-0.0538079477847,9.88516426086,0.0,0.0,0.0,0.0,0.0,0.0,0.0,0.0,0.0
1745400047256922925,5964,1745400047256746366,gyro_link,0.00901603326201,-0.0200871266425,-0.292715013027,-0.955946326256,0.0,0.0,0.0,0.0,0.0,0.0,0.0,0.0,0.0,-0.000672215071972,0.0016044076765,-0.000947385560721,0.0,0.0,0.0,0.0,0.0,0.0,0.0,0.0,0.0,-0.438379794359,-0.0513637587428,9.89331150055,0.0,0.0,0.0,0.0,0.0,0.0,0.0,0.0,0.0
1745400047272278933,5965,1745400047269904901,gyro_link,0.00901469960809,-0.0200902465731,-0.292719423771,-0.955944895744,0.0,0.0,0.0,0.0,0.0,0.0,0.0,0.0,0.0,0.00145279138815,0.0016077774344,-0.000393140071537,0.0,0.0,0.0,0.0,0.0,0.0,0.0,0.0,0.0,-0.427449524403,-0.0514696538448,9.87668418884,0.0,0.0,0.0,0.0,0.0,0.0,0.0,0.0,0.0
1745400047276227362,5966,1745400047275940529,gyro_link,0.00901110004634,-0.0200897175819,-0.292715966702,-0.955945968628,0.0,0.0,0.0,0.0,0.0,0.0,0.0,0.0,0.0,-0.00119944149628,0.0010684162844,-0.00148202315904,0.0,0.0,0.0,0.0,0.0,0.0,0.0,0.0,0.0,-0.427425533533,-0.0562672764063,9.87432384491,0.0,0.0,0.0,0.0,0.0,0.0,0.0,0.0,0.0
1745400047288185439,5967,1745400047285436125,gyro_link,0.00901472847909,-0.0200864970684,-0.292715013027,-0.955946266651,0.0,0.0,0.0,0.0,0.0,0.0,0.0,0.0,0.0,-0.00173211540096,3.1733582091e-06,-0.0014806969557,0.0,0.0,0.0,0.0,0.0,0.0,0.0,0.0,0.0,-0.428427636623,-0.0707357302308,9.85527324677,0.0,0.0,0.0,0.0,0.0,0.0,0.0,0.0,0.0
1745400047301449231,5968,1745400047301276714,gyro_link,0.00901715364307,-0.0200831107795,-0.292718946934,-0.955945014954,0.0,0.0,0.0,0.0,0.0,0.0,0.0,0.0,0.0,-0.000128785948618,0.00159766816068,-0.00200716080144,0.0,0.0,0.0,0.0,0.0,0.0,0.0,0.0,0.0,-0.427061527967,-0.0648635029793,9.83850955963,0.0,0.0,0.0,0.0,0.0,0.0,0.0,0.0,0.0
1745400047305234601,5969,1745400047305118823,gyro_link,0.00901607330889,-0.0200854055583,-0.292712599039,-0.955947041512,0.0,0.0,0.0,0.0,0.0,0.0,0.0,0.0,0.0,-0.00118861580268,0.00106167676859,-0.00254721124656,0.0,0.0,0.0,0.0,0.0,0.0,0.0,0.0,0.0,-0.421337783337,-0.0491616204381,9.86357879639,0.0,0.0,0.0,0.0,0.0,0.0,0.0,0.0,0.0
1745400047323121591,5970,1745400047322586993,gyro_link,0.00901323463768,-0.0200881808996,-0.292712330818,-0.955947101116,0.0,0.0,0.0,0.0,0.0,0.0,0.0,0.0,0.0,0.000376720738132,0.00108189531602,0.000664591789246,0.0,0.0,0.0,0.0,0.0,0.0,0.0,0.0,0.0,-0.440892666578,-0.0536793507636,9.90525817871,0.0,0.0,0.0,0.0,0.0,0.0,0.0,0.0,0.0
1745400047326026859,5971,1745400047325693067,gyro_link,0.00901627633721,-0.0200871750712,-0.292712390423,-0.955946981907,0.0,0.0,0.0,0.0,0.0,0.0,0.0,0.0,0.0,-0.000672215071972,0.0016044076765,-0.000947385560721,0.0,0.0,0.0,0.0,0.0,0.0,0.0,0.0,0.0,-0.44552847743,-0.0430095568299,9.8907957077,0.0,0.0,0.0,0.0,0.0,0.0,0.0,0.0,0.0
1745400047335491421,5972,1745400047335255958,gyro_link,0.00901631824672,-0.0200895778835,-0.292717248201,-0.955945491791,0.0,0.0,0.0,0.0,0.0,0.0,0.0,0.0,0.0,-0.00173204671592,0.0010684162844,-0.00148743612226,0.0,0.0,0.0,0.0,0.0,0.0,0.0,0.0,0.0,-0.4585467875,-0.0526577048004,9.87757015228,0.0,0.0,0.0,0.0,0.0,0.0,0.0,0.0,0.0
1745400047347811110,5973,1745400047347115727,gyro_link,0.00901085883379,-0.0200869496912,-0.292716145515,-0.955945909023,0.0,0.0,0.0,0.0,0.0,0.0,0.0,0.0,0.0,-0.0012210928835,0.00108189531602,0.000648352841381,0.0,0.0,0.0,0.0,0.0,0.0,0.0,0.0,0.0,-0.436856687069,-0.0599373318255,9.86109733582,0.0,0.0,0.0,0.0,0.0,0.0,0.0,0.0,0.0
1745400047355464119,5974,1745400047355323894,gyro_link,0.00901171192527,-0.0200884528458,-0.292717128992,-0.955945670605,0.0,0.0,0.0,0.0,0.0,0.0,0.0,0.0,0.0,-0.00119406287558,0.000532425183337,-0.0020112474449,0.0,0.0,0.0,0.0,0.0,0.0,0.0,0.0,0.0,-0.429769039154,-0.0706449374557,9.86960697174,0.0,0.0,0.0,0.0,0.0,0.0,0.0,0.0,0.0
1745400047365341747,5975,1745400047365237443,gyro_link,0.00901789963245,-0.0200897101313,-0.292717665434,-0.955945372581,0.0,0.0,0.0,0.0,0.0,0.0,0.0,0.0,0.0,0.000387580774259,0.0016077774344,-0.000403965997975,0.0,0.0,0.0,0.0,0.0,0.0,0.0,0.0,0.0,-0.429647177458,-0.0659381002188,9.85762119293,0.0,0.0,0.0,0.0,0.0,0.0,0.0,0.0,0.0
1745400047375368783,5976,1745400047375249531,gyro_link,0.0090150134638,-0.0200929995626,-0.292721688747,-0.955944061279,0.0,0.0,0.0,0.0,0.0,0.0,0.0,0.0,0.0,-0.000145092999446,0.000542534457054,-0.000402639823733,0.0,0.0,0.0,0.0,0.0,0.0,0.0,0.0,0.0,-0.428354352713,-0.0659986138344,9.84806919098,0.0,0.0,0.0,0.0,0.0,0.0,0.0,0.0,0.0
1745400047385201478,5977,1745400047385097330,gyro_link,0.00901538878679,-0.0200914349407,-0.292727768421,-0.955942213535,0.0,0.0,0.0,0.0,0.0,0.0,0.0,0.0,0.0,0.000409163651057,0.000529055483639,-0.00252760294825,0.0,0.0,0.0,0.0,0.0,0.0,0.0,0.0,0.0,-0.415711581707,-0.0381816886365,9.89824295044,0.0,0.0,0.0,0.0,0.0,0.0,0.0,0.0,0.0
1745400047395392742,5978,1745400047395230288,gyro_link,0.00901137292385,-0.0200915932655,-0.292725324631,-0.955943107605,0.0,0.0,0.0,0.0,0.0,0.0,0.0,0.0,0.0,0.00199077511206,0.0010717860423,-0.000916951161344,0.0,0.0,0.0,0.0,0.0,0.0,0.0,0.0,0.0,-0.442991554737,-0.0442959628999,9.87648105621,0.0,0.0,0.0,0.0,0.0,0.0,0.0,0.0,0.0
1745400047405439663,5979,1745400047405288977,gyro_link,0.00901058409363,-0.0200982093811,-0.29272633791,-0.955942630768,0.0,0.0,0.0,0.0,0.0,0.0,0.0,0.0,0.0,-0.000672317750286,6.54310179016e-06,-0.000937276810873,0.0,0.0,0.0,0.0,0.0,0.0,0.0,0.0,0.0,-0.435611784458,-0.0492070168257,9.85625839233,0.0,0.0,0.0,0.0,0.0,0.0,0.0,0.0,0.0
1745400047415763619,5980,1745400047415288814,gyro_link,0.00901508517563,-0.0200950037688,-0.292727768421,-0.955942094326,0.0,0.0,0.0,0.0,0.0,0.0,0.0,0.0,0.0,0.000365929328837,0.00162125646602,0.00172641046811,0.0,0.0,0.0,0.0,0.0,0.0,0.0,0.0,0.0,-0.417727082968,-0.0539592318237,9.8612537384,0.0,0.0,0.0,0.0,0.0,0.0,0.0,0.0,0.0
1745400047425751862,5981,1745400047425462220,gyro_link,0.00901517923921,-0.0200957097113,-0.29272159934,-0.955944061279,0.0,0.0,0.0,0.0,0.0,0.0,0.0,0.0,0.0,-0.0012210928835,0.00108189531602,0.000648352841381,0.0,0.0,0.0,0.0,0.0,0.0,0.0,0.0,0.0,-0.422570228577,-0.0563126653433,9.86719799042,0.0,0.0,0.0,0.0,0.0,0.0,0.0,0.0,0.0
